content,trigger_class,block,question_type,workerid,slide_number_in_experiment,prior_fact,rt,Answer.time_in_minutes,trigger,prior,response,short_trigger,gender,comments,age,language,american,trial
kids,MC,block1,projective,0,5,Many children like ice cream,9723,4.314783333333334,MC,NA,0.03,MC,female,NA,31,English,Yes,1
josh,C,block1,projective,0,6,Josh is a 75-year old man,11421,4.314783333333334,pretend,low_prior,0.01,pretend,female,NA,31,English,Yes,2
mia,C,block1,projective,0,7,Mia is a college student,11539,4.314783333333334,suggest,high_prior,0.18,suggest,female,NA,31,English,Yes,3
muffins,MC,block1,projective,0,8,Muffins are sold at the bakery,6264,4.314783333333334,MC,NA,0.01,MC,female,NA,31,English,Yes,4
garage,MC,block1,projective,0,9,Garages are used to store cars and other things,13676,4.314783333333334,MC,NA,0.03,MC,female,NA,31,English,Yes,5
frank,C,block1,projective,0,10,Frank has always wanted a pet,4143,4.314783333333334,confess,high_prior,0.42,confess,female,NA,31,English,Yes,6
charley,C,block1,projective,0,11,Charley lives in Korea,3390,4.314783333333334,be_right,low_prior,0.01,be_right,female,NA,31,English,Yes,7
isabella,C,block1,projective,0,12,Isabella is from Argentina,6516,4.314783333333334,discover,high_prior,0.05,discover,female,NA,31,English,Yes,8
jackson,C,block1,projective,0,13,Jackson is training for a marathon,4223,4.314783333333334,think,high_prior,0.51,think,female,NA,31,English,Yes,9
emma,C,block1,projective,0,14,Emma is in first grade,5009,4.314783333333334,demonstrate,low_prior,0.62,demonstrate,female,NA,31,English,Yes,10
emily,C,block1,projective,0,15,Emily never has any money,4091,4.314783333333334,announce,low_prior,0,announce,female,NA,31,English,Yes,11
zoe,C,block1,projective,0,16,Zoe is 5 years old,3418,4.314783333333334,confirm,low_prior,0,confirm,female,NA,31,English,Yes,12
josie,C,block1,projective,0,17,Josie doesn't have a passport,4022,4.314783333333334,see,low_prior,0,see,female,NA,31,English,Yes,13
hat,MC,block1,projective,0,18,Hats are worn on the head,3741,4.314783333333334,MC,NA,0.16,MC,female,NA,31,English,Yes,14
pizza,MC,block1,projective,0,19,Pizza is sold at the pizzeria,3007,4.314783333333334,MC,NA,0.1,MC,female,NA,31,English,Yes,15
ballet,MC,block1,projective,0,20,Ballet is a type of dance,2614,4.314783333333334,MC,NA,0.31,MC,female,NA,31,English,Yes,16
grace,C,block1,projective,0,21,Grace hates her sister,3218,4.314783333333334,reveal,low_prior,0,reveal,female,NA,31,English,Yes,17
jon,C,block1,projective,0,22,Jon lives 2 blocks away from work,4625,4.314783333333334,hear,high_prior,0.7,hear,female,NA,31,English,Yes,18
olivia,C,block1,projective,0,23,Olivia has two small children,8884,4.314783333333334,prove,low_prior,0,prove,female,NA,31,English,Yes,19
tony,C,block1,projective,0,24,Tony has been sober for 20 years,4345,4.314783333333334,know,low_prior,0,know,female,NA,31,English,Yes,20
danny,C,block1,projective,0,25,Danny loves cake,6073,4.314783333333334,admit,high_prior,0.59,admit,female,NA,31,English,Yes,21
jayden,C,block1,projective,0,26,Jayden's car is in the shop,3972,4.314783333333334,be_annoyed,high_prior,0.49,be_annoyed,female,NA,31,English,Yes,22
owen,C,block1,projective,0,27,Owen lives in Chicago,3459,4.314783333333334,say,high_prior,0.83,say,female,NA,31,English,Yes,23
sophia,C,block1,projective,0,28,Sophia is a hipster,6506,4.314783333333334,inform,high_prior,0.22,inform,female,NA,31,English,Yes,24
julian,C,block1,projective,0,29,Julian is German,2616,4.314783333333334,establish,low_prior,0,establish,female,NA,31,English,Yes,25
mary,C,block1,projective,0,30,Mary is taking a prenatal yoga class,6174,4.314783333333334,acknowledge,high_prior,1,acknowledge,female,NA,31,English,Yes,26
tony,C,block2,prior,0,32,Tony has been sober for 20 years,3609,4.314783333333334,know,low_prior,0.07,know,female,NA,31,English,Yes,27
julian,C,block2,prior,0,33,Julian is German,3489,4.314783333333334,establish,low_prior,0.25,establish,female,NA,31,English,Yes,28
josh,C,block2,prior,0,34,Josh is a 75-year old man,3016,4.314783333333334,pretend,low_prior,0.06,pretend,female,NA,31,English,Yes,29
muffins,MC,block2,prior,0,35,Muffins are sold at the bakery,2062,4.314783333333334,MC,NA,0.85,MC,female,NA,31,English,Yes,30
emma,C,block2,prior,0,36,Emma is in first grade,3610,4.314783333333334,demonstrate,low_prior,0.63,demonstrate,female,NA,31,English,Yes,31
olivia,C,block2,prior,0,37,Olivia has two small children,2201,4.314783333333334,prove,low_prior,0.04,prove,female,NA,31,English,Yes,32
mia,C,block2,prior,0,38,Mia is a college student,2143,4.314783333333334,suggest,high_prior,0.89,suggest,female,NA,31,English,Yes,33
sophia,C,block2,prior,0,39,Sophia is a hipster,2313,4.314783333333334,inform,high_prior,0.66,inform,female,NA,31,English,Yes,34
grace,C,block2,prior,0,40,Grace hates her sister,1859,4.314783333333334,reveal,low_prior,0.1,reveal,female,NA,31,English,Yes,35
ballet,MC,block2,prior,0,41,Ballet is a type of dance,4646,4.314783333333334,MC,NA,0.63,MC,female,NA,31,English,Yes,36
owen,C,block2,prior,0,42,Owen lives in Chicago,2052,4.314783333333334,say,high_prior,0.97,say,female,NA,31,English,Yes,37
josie,C,block2,prior,0,43,Josie doesn't have a passport,2644,4.314783333333334,see,low_prior,0,see,female,NA,31,English,Yes,38
charley,C,block2,prior,0,44,Charley lives in Korea,5148,4.314783333333334,be_right,low_prior,0.2,be_right,female,NA,31,English,Yes,39
frank,C,block2,prior,0,45,Frank has always wanted a pet,2966,4.314783333333334,confess,high_prior,0.84,confess,female,NA,31,English,Yes,40
mary,C,block2,prior,0,46,Mary is taking a prenatal yoga class,2102,4.314783333333334,acknowledge,high_prior,1,acknowledge,female,NA,31,English,Yes,41
danny,C,block2,prior,0,47,Danny loves cake,2142,4.314783333333334,admit,high_prior,0.94,admit,female,NA,31,English,Yes,42
garage,MC,block2,prior,0,48,Garages are used to store cars and other things,2193,4.314783333333334,MC,NA,0.4,MC,female,NA,31,English,Yes,43
jon,C,block2,prior,0,49,Jon lives 2 blocks away from work,2160,4.314783333333334,hear,high_prior,0.89,hear,female,NA,31,English,Yes,44
hat,MC,block2,prior,0,50,Hats are worn on the head,2402,4.314783333333334,MC,NA,0.5,MC,female,NA,31,English,Yes,45
emily,C,block2,prior,0,51,Emily never has any money,2353,4.314783333333334,announce,low_prior,0.05,announce,female,NA,31,English,Yes,46
zoe,C,block2,prior,0,52,Zoe is 5 years old,2343,4.314783333333334,confirm,low_prior,0,confirm,female,NA,31,English,Yes,47
kids,MC,block2,prior,0,53,Many children like ice cream,3309,4.314783333333334,MC,NA,0.37,MC,female,NA,31,English,Yes,48
jackson,C,block2,prior,0,54,Jackson is training for a marathon,1991,4.314783333333334,think,high_prior,0.86,think,female,NA,31,English,Yes,49
isabella,C,block2,prior,0,55,Isabella is from Argentina,2211,4.314783333333334,discover,high_prior,0.46,discover,female,NA,31,English,Yes,50
pizza,MC,block2,prior,0,56,Pizza is sold at the pizzeria,1872,4.314783333333334,MC,NA,0.89,MC,female,NA,31,English,Yes,51
jayden,C,block2,prior,0,57,Jayden's car is in the shop,2835,4.314783333333334,be_annoyed,high_prior,0.89,be_annoyed,female,NA,31,English,Yes,52
pizza,MC,block1,projective,1,5,Pizza is sold at the pizzeria,8271,4.797983333333334,MC,NA,0.84,MC,male,no,46,English,Yes,1
josh,C,block1,projective,1,6,Josh is a 5-year old boy,1769,4.797983333333334,admit,high_prior,0.53,admit,male,no,46,English,Yes,2
frank,C,block1,projective,1,7,Frank is allergic to cats,1879,4.797983333333334,hear,low_prior,0.66,hear,male,no,46,English,Yes,3
mary,C,block1,projective,1,8,Mary is a middle school student,1215,4.797983333333334,prove,low_prior,0.42,prove,male,no,46,English,Yes,4
hat,MC,block1,projective,1,9,Hats are worn on the head,1072,4.797983333333334,MC,NA,0.62,MC,male,no,46,English,Yes,5
owen,C,block1,projective,1,10,Owen lives in New Orleans,1057,4.797983333333334,discover,low_prior,0.41,discover,male,no,46,English,Yes,6
jackson,C,block1,projective,1,11,Jackson is obese,2134,4.797983333333334,pretend,low_prior,0.63,pretend,male,no,46,English,Yes,7
muffins,MC,block1,projective,1,12,Muffins are sold at the bakery,1218,4.797983333333334,MC,NA,0.28,MC,male,no,46,English,Yes,8
tony,C,block1,projective,1,13,Tony really likes to party with his friends,1752,4.797983333333334,demonstrate,high_prior,0.66,demonstrate,male,no,46,English,Yes,9
jayden,C,block1,projective,1,14,Jayden's car is in the shop,1088,4.797983333333334,acknowledge,high_prior,0.73,acknowledge,male,no,46,English,Yes,10
garage,MC,block1,projective,1,15,Garages are used to store cars and other things,977,4.797983333333334,MC,NA,0.74,MC,male,no,46,English,Yes,11
ballet,MC,block1,projective,1,16,Ballet is a type of dance,1479,4.797983333333334,MC,NA,0.24,MC,male,no,46,English,Yes,12
jon,C,block1,projective,1,17,Jon lives 2 blocks away from work,1992,4.797983333333334,be_annoyed,high_prior,0.56,be_annoyed,male,no,46,English,Yes,13
josie,C,block1,projective,1,18,Josie doesn't have a passport,1111,4.797983333333334,say,low_prior,0.77,say,male,no,46,English,Yes,14
isabella,C,block1,projective,1,19,Isabella is from Argentina,921,4.797983333333334,see,high_prior,0.54,see,male,no,46,English,Yes,15
julian,C,block1,projective,1,20,Julian is German,1112,4.797983333333334,confess,low_prior,0.75,confess,male,no,46,English,Yes,16
emma,C,block1,projective,1,21,Emma is in first grade,2214,4.797983333333334,think,low_prior,0.51,think,male,no,46,English,Yes,17
kids,MC,block1,projective,1,22,Many children like ice cream,945,4.797983333333334,MC,NA,0.58,MC,male,no,46,English,Yes,18
olivia,C,block1,projective,1,23,Olivia works the third shift,864,4.797983333333334,know,high_prior,0.39,know,male,no,46,English,Yes,19
emily,C,block1,projective,1,24,Emily never has any money,2111,4.797983333333334,confirm,low_prior,0.2,confirm,male,no,46,English,Yes,20
danny,C,block1,projective,1,25,Danny loves cake,2072,4.797983333333334,reveal,high_prior,0.65,reveal,male,no,46,English,Yes,21
zoe,C,block1,projective,1,26,Zoe is a math major,1616,4.797983333333334,announce,high_prior,0.25,announce,male,no,46,English,Yes,22
grace,C,block1,projective,1,27,Grace hates her sister,1023,4.797983333333334,be_right,low_prior,0.69,be_right,male,no,46,English,Yes,23
mia,C,block1,projective,1,28,Mia is a nun,5253,4.797983333333334,inform,low_prior,0.65,inform,male,no,46,English,Yes,24
sophia,C,block1,projective,1,29,Sophia is a hipster,11104,4.797983333333334,suggest,high_prior,0.6,suggest,male,no,46,English,Yes,25
charley,C,block1,projective,1,30,Charley lives in Mexico,6255,4.797983333333334,establish,high_prior,0.08,establish,male,no,46,English,Yes,26
isabella,C,block2,prior,1,32,Isabella is from Argentina,4926,4.797983333333334,see,high_prior,0.81,see,male,no,46,English,Yes,27
danny,C,block2,prior,1,33,Danny loves cake,6879,4.797983333333334,reveal,high_prior,0.88,reveal,male,no,46,English,Yes,28
mary,C,block2,prior,1,34,Mary is a middle school student,7898,4.797983333333334,prove,low_prior,0.04,prove,male,no,46,English,Yes,29
zoe,C,block2,prior,1,35,Zoe is a math major,6760,4.797983333333334,announce,high_prior,0.74,announce,male,no,46,English,Yes,30
pizza,MC,block2,prior,1,36,Pizza is sold at the pizzeria,4471,4.797983333333334,MC,NA,0.09,MC,male,no,46,English,Yes,31
tony,C,block2,prior,1,37,Tony really likes to party with his friends,5960,4.797983333333334,demonstrate,high_prior,0.9,demonstrate,male,no,46,English,Yes,32
josie,C,block2,prior,1,38,Josie doesn't have a passport,24433,4.797983333333334,say,low_prior,0.04,say,male,no,46,English,Yes,33
kids,MC,block2,prior,1,39,Many children like ice cream,6144,4.797983333333334,MC,NA,0.5,MC,male,no,46,English,Yes,34
ballet,MC,block2,prior,1,40,Ballet is a type of dance,4353,4.797983333333334,MC,NA,0.96,MC,male,no,46,English,Yes,35
grace,C,block2,prior,1,41,Grace hates her sister,5768,4.797983333333334,be_right,low_prior,0.01,be_right,male,no,46,English,Yes,36
frank,C,block2,prior,1,42,Frank is allergic to cats,6206,4.797983333333334,hear,low_prior,0.04,hear,male,no,46,English,Yes,37
jackson,C,block2,prior,1,43,Jackson is obese,6465,4.797983333333334,pretend,low_prior,0.35,pretend,male,no,46,English,Yes,38
jayden,C,block2,prior,1,44,Jayden's car is in the shop,6759,4.797983333333334,acknowledge,high_prior,0.94,acknowledge,male,no,46,English,Yes,39
hat,MC,block2,prior,1,45,Hats are worn on the head,6232,4.797983333333334,MC,NA,0.84,MC,male,no,46,English,Yes,40
sophia,C,block2,prior,1,46,Sophia is a hipster,4458,4.797983333333334,suggest,high_prior,0.94,suggest,male,no,46,English,Yes,41
garage,MC,block2,prior,1,47,Garages are used to store cars and other things,5943,4.797983333333334,MC,NA,0.81,MC,male,no,46,English,Yes,42
mia,C,block2,prior,1,48,Mia is a nun,4824,4.797983333333334,inform,low_prior,0.04,inform,male,no,46,English,Yes,43
emily,C,block2,prior,1,49,Emily never has any money,7104,4.797983333333334,confirm,low_prior,0.02,confirm,male,no,46,English,Yes,44
owen,C,block2,prior,1,50,Owen lives in New Orleans,7529,4.797983333333334,discover,low_prior,0.92,discover,male,no,46,English,Yes,45
olivia,C,block2,prior,1,51,Olivia works the third shift,7367,4.797983333333334,know,high_prior,0,know,male,no,46,English,Yes,46
muffins,MC,block2,prior,1,52,Muffins are sold at the bakery,8297,4.797983333333334,MC,NA,0.66,MC,male,no,46,English,Yes,47
emma,C,block2,prior,1,53,Emma is in first grade,31855,4.797983333333334,think,low_prior,0.13,think,male,no,46,English,Yes,48
julian,C,block2,prior,1,54,Julian is German,4088,4.797983333333334,confess,low_prior,0.11,confess,male,no,46,English,Yes,49
jon,C,block2,prior,1,55,Jon lives 2 blocks away from work,3135,4.797983333333334,be_annoyed,high_prior,0.88,be_annoyed,male,no,46,English,Yes,50
josh,C,block2,prior,1,56,Josh is a 5-year old boy,4537,4.797983333333334,admit,high_prior,0.06,admit,male,no,46,English,Yes,51
charley,C,block2,prior,1,57,Charley lives in Mexico,4647,4.797983333333334,establish,high_prior,0.82,establish,male,no,46,English,Yes,52
frank,C,block1,projective,2,5,Frank has always wanted a pet,73320,3.7016833333333334,be_annoyed,high_prior,0.6,be_annoyed,male,GOOD SURVEY,31,ENGLISH,Yes,1
muffins,MC,block1,projective,2,6,Muffins are sold at the bakery,2279,3.7016833333333334,MC,NA,0.7,MC,male,GOOD SURVEY,31,ENGLISH,Yes,2
pizza,MC,block1,projective,2,7,Pizza is sold at the pizzeria,1720,3.7016833333333334,MC,NA,0.6,MC,male,GOOD SURVEY,31,ENGLISH,Yes,3
jon,C,block1,projective,2,8,Jon lives 2 blocks away from work,2020,3.7016833333333334,prove,high_prior,0.67,prove,male,GOOD SURVEY,31,ENGLISH,Yes,4
emma,C,block1,projective,2,9,Emma is in first grade,7720,3.7016833333333334,suggest,low_prior,0.57,suggest,male,GOOD SURVEY,31,ENGLISH,Yes,5
isabella,C,block1,projective,2,10,Isabella is from Argentina,1780,3.7016833333333334,say,high_prior,0.64,say,male,GOOD SURVEY,31,ENGLISH,Yes,6
emily,C,block1,projective,2,11,Emily has been saving for a year,1359,3.7016833333333334,see,high_prior,0.76,see,male,GOOD SURVEY,31,ENGLISH,Yes,7
tony,C,block1,projective,2,12,Tony really likes to party with his friends,1290,3.7016833333333334,confirm,high_prior,0.61,confirm,male,GOOD SURVEY,31,ENGLISH,Yes,8
owen,C,block1,projective,2,13,Owen lives in New Orleans,1281,3.7016833333333334,know,low_prior,0.8,know,male,GOOD SURVEY,31,ENGLISH,Yes,9
ballet,MC,block1,projective,2,14,Ballet is a type of dance,1280,3.7016833333333334,MC,NA,0.65,MC,male,GOOD SURVEY,31,ENGLISH,Yes,10
josh,C,block1,projective,2,15,Josh is a 75-year old man,1290,3.7016833333333334,be_right,low_prior,0.79,be_right,male,GOOD SURVEY,31,ENGLISH,Yes,11
zoe,C,block1,projective,2,16,Zoe is 5 years old,2160,3.7016833333333334,inform,low_prior,0.66,inform,male,GOOD SURVEY,31,ENGLISH,Yes,12
julian,C,block1,projective,2,17,Julian is Cuban,2469,3.7016833333333334,discover,high_prior,0.77,discover,male,GOOD SURVEY,31,ENGLISH,Yes,13
hat,MC,block1,projective,2,18,Hats are worn on the head,3370,3.7016833333333334,MC,NA,0.7,MC,male,GOOD SURVEY,31,ENGLISH,Yes,14
grace,C,block1,projective,2,19,Grace hates her sister,1880,3.7016833333333334,announce,low_prior,0.81,announce,male,GOOD SURVEY,31,ENGLISH,Yes,15
garage,MC,block1,projective,2,20,Garages are used to store cars and other things,1940,3.7016833333333334,MC,NA,0.65,MC,male,GOOD SURVEY,31,ENGLISH,Yes,16
kids,MC,block1,projective,2,21,Many children like ice cream,1460,3.7016833333333334,MC,NA,0.76,MC,male,GOOD SURVEY,31,ENGLISH,Yes,17
mary,C,block1,projective,2,22,Mary is a middle school student,1580,3.7016833333333334,reveal,low_prior,0.64,reveal,male,GOOD SURVEY,31,ENGLISH,Yes,18
charley,C,block1,projective,2,23,Charley lives in Korea,1260,3.7016833333333334,admit,low_prior,0.75,admit,male,GOOD SURVEY,31,ENGLISH,Yes,19
danny,C,block1,projective,2,24,Danny loves cake,1301,3.7016833333333334,pretend,high_prior,0.66,pretend,male,GOOD SURVEY,31,ENGLISH,Yes,20
josie,C,block1,projective,2,25,Josie doesn't have a passport,1339,3.7016833333333334,establish,low_prior,0.76,establish,male,GOOD SURVEY,31,ENGLISH,Yes,21
mia,C,block1,projective,2,26,Mia is a nun,1900,3.7016833333333334,hear,low_prior,0.68,hear,male,GOOD SURVEY,31,ENGLISH,Yes,22
jackson,C,block1,projective,2,27,Jackson is training for a marathon,1739,3.7016833333333334,confess,high_prior,0.8,confess,male,GOOD SURVEY,31,ENGLISH,Yes,23
sophia,C,block1,projective,2,28,Sophia is a hipster,1581,3.7016833333333334,acknowledge,high_prior,0.59,acknowledge,male,GOOD SURVEY,31,ENGLISH,Yes,24
olivia,C,block1,projective,2,29,Olivia works the third shift,1179,3.7016833333333334,demonstrate,high_prior,0.69,demonstrate,male,GOOD SURVEY,31,ENGLISH,Yes,25
jayden,C,block1,projective,2,30,Jayden doesn't have a driver's license,1200,3.7016833333333334,think,low_prior,0.48,think,male,GOOD SURVEY,31,ENGLISH,Yes,26
frank,C,block2,prior,2,32,Frank has always wanted a pet,3808,3.7016833333333334,be_annoyed,high_prior,0.64,be_annoyed,male,GOOD SURVEY,31,ENGLISH,Yes,27
julian,C,block2,prior,2,33,Julian is Cuban,6109,3.7016833333333334,discover,high_prior,0.76,discover,male,GOOD SURVEY,31,ENGLISH,Yes,28
ballet,MC,block2,prior,2,34,Ballet is a type of dance,1500,3.7016833333333334,MC,NA,0.62,MC,male,GOOD SURVEY,31,ENGLISH,Yes,29
isabella,C,block2,prior,2,35,Isabella is from Argentina,1199,3.7016833333333334,say,high_prior,0.73,say,male,GOOD SURVEY,31,ENGLISH,Yes,30
owen,C,block2,prior,2,36,Owen lives in New Orleans,1420,3.7016833333333334,know,low_prior,0.62,know,male,GOOD SURVEY,31,ENGLISH,Yes,31
jon,C,block2,prior,2,37,Jon lives 2 blocks away from work,1360,3.7016833333333334,prove,high_prior,0.72,prove,male,GOOD SURVEY,31,ENGLISH,Yes,32
jackson,C,block2,prior,2,38,Jackson is training for a marathon,1700,3.7016833333333334,confess,high_prior,0.61,confess,male,GOOD SURVEY,31,ENGLISH,Yes,33
grace,C,block2,prior,2,39,Grace hates her sister,1280,3.7016833333333334,announce,low_prior,0.77,announce,male,GOOD SURVEY,31,ENGLISH,Yes,34
pizza,MC,block2,prior,2,40,Pizza is sold at the pizzeria,2500,3.7016833333333334,MC,NA,0.65,MC,male,GOOD SURVEY,31,ENGLISH,Yes,35
olivia,C,block2,prior,2,41,Olivia works the third shift,1260,3.7016833333333334,demonstrate,high_prior,0.54,demonstrate,male,GOOD SURVEY,31,ENGLISH,Yes,36
sophia,C,block2,prior,2,42,Sophia is a hipster,1180,3.7016833333333334,acknowledge,high_prior,0.67,acknowledge,male,GOOD SURVEY,31,ENGLISH,Yes,37
tony,C,block2,prior,2,43,Tony really likes to party with his friends,2540,3.7016833333333334,confirm,high_prior,0.74,confirm,male,GOOD SURVEY,31,ENGLISH,Yes,38
jayden,C,block2,prior,2,44,Jayden doesn't have a driver's license,1240,3.7016833333333334,think,low_prior,0.58,think,male,GOOD SURVEY,31,ENGLISH,Yes,39
muffins,MC,block2,prior,2,45,Muffins are sold at the bakery,1529,3.7016833333333334,MC,NA,0.71,MC,male,GOOD SURVEY,31,ENGLISH,Yes,40
zoe,C,block2,prior,2,46,Zoe is 5 years old,1590,3.7016833333333334,inform,low_prior,0.64,inform,male,GOOD SURVEY,31,ENGLISH,Yes,41
garage,MC,block2,prior,2,47,Garages are used to store cars and other things,2040,3.7016833333333334,MC,NA,0.78,MC,male,GOOD SURVEY,31,ENGLISH,Yes,42
charley,C,block2,prior,2,48,Charley lives in Korea,1655,3.7016833333333334,admit,low_prior,0.68,admit,male,GOOD SURVEY,31,ENGLISH,Yes,43
josie,C,block2,prior,2,49,Josie doesn't have a passport,1725,3.7016833333333334,establish,low_prior,0.76,establish,male,GOOD SURVEY,31,ENGLISH,Yes,44
kids,MC,block2,prior,2,50,Many children like ice cream,1260,3.7016833333333334,MC,NA,0.71,MC,male,GOOD SURVEY,31,ENGLISH,Yes,45
hat,MC,block2,prior,2,51,Hats are worn on the head,4000,3.7016833333333334,MC,NA,0.75,MC,male,GOOD SURVEY,31,ENGLISH,Yes,46
mary,C,block2,prior,2,52,Mary is a middle school student,1620,3.7016833333333334,reveal,low_prior,0.61,reveal,male,GOOD SURVEY,31,ENGLISH,Yes,47
mia,C,block2,prior,2,53,Mia is a nun,1319,3.7016833333333334,hear,low_prior,0.75,hear,male,GOOD SURVEY,31,ENGLISH,Yes,48
emily,C,block2,prior,2,54,Emily has been saving for a year,1700,3.7016833333333334,see,high_prior,0.66,see,male,GOOD SURVEY,31,ENGLISH,Yes,49
danny,C,block2,prior,2,55,Danny loves cake,1440,3.7016833333333334,pretend,high_prior,0.8,pretend,male,GOOD SURVEY,31,ENGLISH,Yes,50
emma,C,block2,prior,2,56,Emma is in first grade,2001,3.7016833333333334,suggest,low_prior,0.68,suggest,male,GOOD SURVEY,31,ENGLISH,Yes,51
josh,C,block2,prior,2,57,Josh is a 75-year old man,1340,3.7016833333333334,be_right,low_prior,0.77,be_right,male,GOOD SURVEY,31,ENGLISH,Yes,52
mary,C,block1,projective,3,5,Mary is taking a prenatal yoga class,5922,5.79545,be_right,high_prior,0.82,be_right,male,its very interesting,51,ENGLISH,Yes,1
muffins,MC,block1,projective,3,6,Muffins are sold at the bakery,1366,5.79545,MC,NA,0.46,MC,male,its very interesting,51,ENGLISH,Yes,2
emily,C,block1,projective,3,7,Emily never has any money,1175,5.79545,know,low_prior,0.58,know,male,its very interesting,51,ENGLISH,Yes,3
jayden,C,block1,projective,3,8,Jayden doesn't have a driver's license,1296,5.79545,suggest,low_prior,0.64,suggest,male,its very interesting,51,ENGLISH,Yes,4
kids,MC,block1,projective,3,9,Many children like ice cream,1184,5.79545,MC,NA,0.41,MC,male,its very interesting,51,ENGLISH,Yes,5
josie,C,block1,projective,3,10,Josie doesn't have a passport,936,5.79545,think,low_prior,0.56,think,male,its very interesting,51,ENGLISH,Yes,6
zoe,C,block1,projective,3,11,Zoe is a math major,1016,5.79545,reveal,high_prior,0.72,reveal,male,its very interesting,51,ENGLISH,Yes,7
hat,MC,block1,projective,3,12,Hats are worn on the head,984,5.79545,MC,NA,0.45,MC,male,its very interesting,51,ENGLISH,Yes,8
olivia,C,block1,projective,3,13,Olivia has two small children,943,5.79545,hear,low_prior,0.59,hear,male,its very interesting,51,ENGLISH,Yes,9
julian,C,block1,projective,3,14,Julian is Cuban,958,5.79545,announce,high_prior,0.84,announce,male,its very interesting,51,ENGLISH,Yes,10
sophia,C,block1,projective,3,15,Sophia is a hipster,1072,5.79545,confirm,high_prior,0.45,confirm,male,its very interesting,51,ENGLISH,Yes,11
mia,C,block1,projective,3,16,Mia is a nun,24750,5.79545,admit,low_prior,0.51,admit,male,its very interesting,51,ENGLISH,Yes,12
grace,C,block1,projective,3,17,Grace loves her sister,1417,5.79545,pretend,high_prior,0.7,pretend,male,its very interesting,51,ENGLISH,Yes,13
danny,C,block1,projective,3,18,Danny loves cake,721,5.79545,see,high_prior,0.53,see,male,its very interesting,51,ENGLISH,Yes,14
jon,C,block1,projective,3,19,Jon lives 10 miles away from work,782,5.79545,demonstrate,low_prior,0.67,demonstrate,male,its very interesting,51,ENGLISH,Yes,15
tony,C,block1,projective,3,20,Tony has been sober for 20 years,783,5.79545,discover,low_prior,0.43,discover,male,its very interesting,51,ENGLISH,Yes,16
jackson,C,block1,projective,3,21,Jackson is training for a marathon,696,5.79545,inform,high_prior,0.62,inform,male,its very interesting,51,ENGLISH,Yes,17
isabella,C,block1,projective,3,22,Isabella is a vegetarian,712,5.79545,establish,low_prior,0.42,establish,male,its very interesting,51,ENGLISH,Yes,18
ballet,MC,block1,projective,3,23,Ballet is a type of dance,1481,5.79545,MC,NA,0.62,MC,male,its very interesting,51,ENGLISH,Yes,19
josh,C,block1,projective,3,24,Josh is a 5-year old boy,1503,5.79545,confess,high_prior,0.35,confess,male,its very interesting,51,ENGLISH,Yes,20
pizza,MC,block1,projective,3,25,Pizza is sold at the pizzeria,713,5.79545,MC,NA,0.55,MC,male,its very interesting,51,ENGLISH,Yes,21
garage,MC,block1,projective,3,26,Garages are used to store cars and other things,750,5.79545,MC,NA,0.68,MC,male,its very interesting,51,ENGLISH,Yes,22
owen,C,block1,projective,3,27,Owen lives in Chicago,727,5.79545,say,high_prior,0.51,say,male,its very interesting,51,ENGLISH,Yes,23
emma,C,block1,projective,3,28,Emma is in first grade,735,5.79545,acknowledge,low_prior,0.68,acknowledge,male,its very interesting,51,ENGLISH,Yes,24
charley,C,block1,projective,3,29,Charley lives in Mexico,1768,5.79545,prove,high_prior,0.71,prove,male,its very interesting,51,ENGLISH,Yes,25
frank,C,block1,projective,3,30,Frank is allergic to cats,25677,5.79545,be_annoyed,low_prior,0.5,be_annoyed,male,its very interesting,51,ENGLISH,Yes,26
mia,C,block2,prior,3,32,Mia is a nun,1466,5.79545,admit,low_prior,0.57,admit,male,its very interesting,51,ENGLISH,Yes,27
ballet,MC,block2,prior,3,33,Ballet is a type of dance,27659,5.79545,MC,NA,0.57,MC,male,its very interesting,51,ENGLISH,Yes,28
josh,C,block2,prior,3,34,Josh is a 5-year old boy,1237,5.79545,confess,high_prior,0.78,confess,male,its very interesting,51,ENGLISH,Yes,29
hat,MC,block2,prior,3,35,Hats are worn on the head,1616,5.79545,MC,NA,0.85,MC,male,its very interesting,51,ENGLISH,Yes,30
pizza,MC,block2,prior,3,36,Pizza is sold at the pizzeria,808,5.79545,MC,NA,0.49,MC,male,its very interesting,51,ENGLISH,Yes,31
jayden,C,block2,prior,3,37,Jayden doesn't have a driver's license,1023,5.79545,suggest,low_prior,0.42,suggest,male,its very interesting,51,ENGLISH,Yes,32
garage,MC,block2,prior,3,38,Garages are used to store cars and other things,912,5.79545,MC,NA,0.71,MC,male,its very interesting,51,ENGLISH,Yes,33
frank,C,block2,prior,3,39,Frank is allergic to cats,840,5.79545,be_annoyed,low_prior,0.47,be_annoyed,male,its very interesting,51,ENGLISH,Yes,34
owen,C,block2,prior,3,40,Owen lives in Chicago,1287,5.79545,say,high_prior,0.63,say,male,its very interesting,51,ENGLISH,Yes,35
kids,MC,block2,prior,3,41,Many children like ice cream,944,5.79545,MC,NA,0.42,MC,male,its very interesting,51,ENGLISH,Yes,36
tony,C,block2,prior,3,42,Tony has been sober for 20 years,1648,5.79545,discover,low_prior,0.76,discover,male,its very interesting,51,ENGLISH,Yes,37
emily,C,block2,prior,3,43,Emily never has any money,1576,5.79545,know,low_prior,0.53,know,male,its very interesting,51,ENGLISH,Yes,38
josie,C,block2,prior,3,44,Josie doesn't have a passport,1823,5.79545,think,low_prior,0.75,think,male,its very interesting,51,ENGLISH,Yes,39
isabella,C,block2,prior,3,45,Isabella is a vegetarian,1265,5.79545,establish,low_prior,0.35,establish,male,its very interesting,51,ENGLISH,Yes,40
grace,C,block2,prior,3,46,Grace loves her sister,1400,5.79545,pretend,high_prior,0.91,pretend,male,its very interesting,51,ENGLISH,Yes,41
charley,C,block2,prior,3,47,Charley lives in Mexico,1430,5.79545,prove,high_prior,0.53,prove,male,its very interesting,51,ENGLISH,Yes,42
jon,C,block2,prior,3,48,Jon lives 10 miles away from work,984,5.79545,demonstrate,low_prior,0.82,demonstrate,male,its very interesting,51,ENGLISH,Yes,43
jackson,C,block2,prior,3,49,Jackson is training for a marathon,2239,5.79545,inform,high_prior,0.52,inform,male,its very interesting,51,ENGLISH,Yes,44
olivia,C,block2,prior,3,50,Olivia has two small children,958,5.79545,hear,low_prior,0.75,hear,male,its very interesting,51,ENGLISH,Yes,45
sophia,C,block2,prior,3,51,Sophia is a hipster,1017,5.79545,confirm,high_prior,0.46,confirm,male,its very interesting,51,ENGLISH,Yes,46
emma,C,block2,prior,3,52,Emma is in first grade,959,5.79545,acknowledge,low_prior,0.66,acknowledge,male,its very interesting,51,ENGLISH,Yes,47
julian,C,block2,prior,3,53,Julian is Cuban,936,5.79545,announce,high_prior,0.51,announce,male,its very interesting,51,ENGLISH,Yes,48
mary,C,block2,prior,3,54,Mary is taking a prenatal yoga class,1119,5.79545,be_right,high_prior,0.83,be_right,male,its very interesting,51,ENGLISH,Yes,49
muffins,MC,block2,prior,3,55,Muffins are sold at the bakery,912,5.79545,MC,NA,0.41,MC,male,its very interesting,51,ENGLISH,Yes,50
zoe,C,block2,prior,3,56,Zoe is a math major,912,5.79545,reveal,high_prior,0.69,reveal,male,its very interesting,51,ENGLISH,Yes,51
danny,C,block2,prior,3,57,Danny loves cake,1032,5.79545,see,high_prior,0.49,see,male,its very interesting,51,ENGLISH,Yes,52
pizza,MC,block1,prior,4,5,Pizza is sold at the pizzeria,4750,8.12415,MC,NA,0.46,MC,female,NA,30,English,Yes,1
charley,C,block1,prior,4,6,Charley lives in Mexico,4470,8.12415,inform,high_prior,0.82,inform,female,NA,30,English,Yes,2
mary,C,block1,prior,4,7,Mary is a middle school student,4487,8.12415,say,low_prior,0.16,say,female,NA,30,English,Yes,3
emma,C,block1,prior,4,8,Emma is in first grade,6359,8.12415,confess,low_prior,0.24,confess,female,NA,30,English,Yes,4
muffins,MC,block1,prior,4,9,Muffins are sold at the bakery,3285,8.12415,MC,NA,0.6,MC,female,NA,30,English,Yes,5
jackson,C,block1,prior,4,10,Jackson is training for a marathon,3860,8.12415,confirm,high_prior,0.61,confirm,female,NA,30,English,Yes,6
danny,C,block1,prior,4,11,Danny loves cake,15073,8.12415,announce,high_prior,0.62,announce,female,NA,30,English,Yes,7
isabella,C,block1,prior,4,12,Isabella is from Argentina,3702,8.12415,suggest,high_prior,0.5,suggest,female,NA,30,English,Yes,8
hat,MC,block1,prior,4,13,Hats are worn on the head,3477,8.12415,MC,NA,0.5,MC,female,NA,30,English,Yes,9
mia,C,block1,prior,4,14,Mia is a college student,3860,8.12415,hear,high_prior,0.59,hear,female,NA,30,English,Yes,10
jon,C,block1,prior,4,15,Jon lives 10 miles away from work,4079,8.12415,think,low_prior,0.24,think,female,NA,30,English,Yes,11
kids,MC,block1,prior,4,16,Many children like ice cream,5365,8.12415,MC,NA,0.54,MC,female,NA,30,English,Yes,12
owen,C,block1,prior,4,17,Owen lives in Chicago,3853,8.12415,prove,high_prior,0.5,prove,female,NA,30,English,Yes,13
josie,C,block1,prior,4,18,Josie doesn't have a passport,27676,8.12415,be_annoyed,low_prior,0.03,be_annoyed,female,NA,30,English,Yes,14
josh,C,block1,prior,4,19,Josh is a 5-year old boy,3046,8.12415,see,high_prior,0.5,see,female,NA,30,English,Yes,15
olivia,C,block1,prior,4,20,Olivia has two small children,3452,8.12415,be_right,low_prior,0.14,be_right,female,NA,30,English,Yes,16
garage,MC,block1,prior,4,21,Garages are used to store cars and other things,5947,8.12415,MC,NA,0.35,MC,female,NA,30,English,Yes,17
sophia,C,block1,prior,4,22,Sophia is a high end fashion model,3891,8.12415,admit,low_prior,0.29,admit,female,NA,30,English,Yes,18
jayden,C,block1,prior,4,23,Jayden's car is in the shop,4470,8.12415,pretend,high_prior,0.69,pretend,female,NA,30,English,Yes,19
julian,C,block1,prior,4,24,Julian is German,2932,8.12415,know,low_prior,0.49,know,female,NA,30,English,Yes,20
grace,C,block1,prior,4,25,Grace loves her sister,3598,8.12415,establish,high_prior,0.63,establish,female,NA,30,English,Yes,21
ballet,MC,block1,prior,4,26,Ballet is a type of dance,3964,8.12415,MC,NA,0.47,MC,female,NA,30,English,Yes,22
tony,C,block1,prior,4,27,Tony has been sober for 20 years,3366,8.12415,discover,low_prior,0.06,discover,female,NA,30,English,Yes,23
frank,C,block1,prior,4,28,Frank has always wanted a pet,3291,8.12415,demonstrate,high_prior,0.64,demonstrate,female,NA,30,English,Yes,24
emily,C,block1,prior,4,29,Emily never has any money,3012,8.12415,reveal,low_prior,0.05,reveal,female,NA,30,English,Yes,25
zoe,C,block1,prior,4,30,Zoe is 5 years old,2692,8.12415,acknowledge,low_prior,0.05,acknowledge,female,NA,30,English,Yes,26
julian,C,block2,projective,4,32,Julian is German,41444,8.12415,know,low_prior,0.93,know,female,NA,30,English,Yes,27
mia,C,block2,projective,4,33,Mia is a college student,5345,8.12415,hear,high_prior,0.98,hear,female,NA,30,English,Yes,28
mary,C,block2,projective,4,34,Mary is a middle school student,5096,8.12415,say,low_prior,0.02,say,female,NA,30,English,Yes,29
josie,C,block2,projective,4,35,Josie doesn't have a passport,10512,8.12415,be_annoyed,low_prior,0.91,be_annoyed,female,NA,30,English,Yes,30
grace,C,block2,projective,4,36,Grace loves her sister,5280,8.12415,establish,high_prior,0.06,establish,female,NA,30,English,Yes,31
jackson,C,block2,projective,4,37,Jackson is training for a marathon,3414,8.12415,confirm,high_prior,0.04,confirm,female,NA,30,English,Yes,32
zoe,C,block2,projective,4,38,Zoe is 5 years old,5179,8.12415,acknowledge,low_prior,0.87,acknowledge,female,NA,30,English,Yes,33
jayden,C,block2,projective,4,39,Jayden's car is in the shop,4871,8.12415,pretend,high_prior,0.06,pretend,female,NA,30,English,Yes,34
olivia,C,block2,projective,4,40,Olivia has two small children,103661,8.12415,be_right,low_prior,0.04,be_right,female,NA,30,English,Yes,35
owen,C,block2,projective,4,41,Owen lives in Chicago,8581,8.12415,prove,high_prior,0.06,prove,female,NA,30,English,Yes,36
emma,C,block2,projective,4,42,Emma is in first grade,4134,8.12415,confess,low_prior,0.8,confess,female,NA,30,English,Yes,37
muffins,MC,block2,projective,4,43,Muffins are sold at the bakery,3100,8.12415,MC,NA,0.05,MC,female,NA,30,English,Yes,38
kids,MC,block2,projective,4,44,Many children like ice cream,2844,8.12415,MC,NA,0.04,MC,female,NA,30,English,Yes,39
hat,MC,block2,projective,4,45,Hats are worn on the head,3348,8.12415,MC,NA,0.03,MC,female,NA,30,English,Yes,40
jon,C,block2,projective,4,46,Jon lives 10 miles away from work,4768,8.12415,think,low_prior,0.03,think,female,NA,30,English,Yes,41
isabella,C,block2,projective,4,47,Isabella is from Argentina,3827,8.12415,suggest,high_prior,0.03,suggest,female,NA,30,English,Yes,42
garage,MC,block2,projective,4,48,Garages are used to store cars and other things,2764,8.12415,MC,NA,0.02,MC,female,NA,30,English,Yes,43
sophia,C,block2,projective,4,49,Sophia is a high end fashion model,6023,8.12415,admit,low_prior,0.04,admit,female,NA,30,English,Yes,44
frank,C,block2,projective,4,50,Frank has always wanted a pet,6347,8.12415,demonstrate,high_prior,0.05,demonstrate,female,NA,30,English,Yes,45
charley,C,block2,projective,4,51,Charley lives in Mexico,4358,8.12415,inform,high_prior,0.89,inform,female,NA,30,English,Yes,46
ballet,MC,block2,projective,4,52,Ballet is a type of dance,3958,8.12415,MC,NA,0.04,MC,female,NA,30,English,Yes,47
tony,C,block2,projective,4,53,Tony has been sober for 20 years,3678,8.12415,discover,low_prior,0.94,discover,female,NA,30,English,Yes,48
emily,C,block2,projective,4,54,Emily never has any money,4748,8.12415,reveal,low_prior,0.06,reveal,female,NA,30,English,Yes,49
danny,C,block2,projective,4,55,Danny loves cake,5590,8.12415,announce,high_prior,0.06,announce,female,NA,30,English,Yes,50
josh,C,block2,projective,4,56,Josh is a 5-year old boy,3134,8.12415,see,high_prior,0.96,see,female,NA,30,English,Yes,51
pizza,MC,block2,projective,4,57,Pizza is sold at the pizzeria,2418,8.12415,MC,NA,0.03,MC,female,NA,30,English,Yes,52
isabella,C,block1,projective,5,5,Isabella is from Argentina,13561,8.985416666666667,suggest,high_prior,0.14,suggest,male,NA,21,English,Yes,1
jon,C,block1,projective,5,6,Jon lives 2 blocks away from work,8513,8.985416666666667,discover,high_prior,0.8,discover,male,NA,21,English,Yes,2
jayden,C,block1,projective,5,7,Jayden doesn't have a driver's license,7206,8.985416666666667,acknowledge,low_prior,0.89,acknowledge,male,NA,21,English,Yes,3
charley,C,block1,projective,5,8,Charley lives in Mexico,7923,8.985416666666667,inform,high_prior,0.91,inform,male,NA,21,English,Yes,4
jackson,C,block1,projective,5,9,Jackson is training for a marathon,7724,8.985416666666667,be_annoyed,high_prior,0.96,be_annoyed,male,NA,21,English,Yes,5
grace,C,block1,projective,5,10,Grace hates her sister,12291,8.985416666666667,admit,low_prior,0.89,admit,male,NA,21,English,Yes,6
olivia,C,block1,projective,5,11,Olivia has two small children,8971,8.985416666666667,say,low_prior,0.07,say,male,NA,21,English,Yes,7
pizza,MC,block1,projective,5,12,Pizza is sold at the pizzeria,7734,8.985416666666667,MC,NA,0,MC,male,NA,21,English,Yes,8
ballet,MC,block1,projective,5,13,Ballet is a type of dance,6625,8.985416666666667,MC,NA,0.05,MC,male,NA,21,English,Yes,9
owen,C,block1,projective,5,14,Owen lives in Chicago,11110,8.985416666666667,confirm,high_prior,0.72,confirm,male,NA,21,English,Yes,10
danny,C,block1,projective,5,15,Danny loves cake,8262,8.985416666666667,be_right,high_prior,0.16,be_right,male,NA,21,English,Yes,11
kids,MC,block1,projective,5,16,Many children like ice cream,61876,8.985416666666667,MC,NA,0.03,MC,male,NA,21,English,Yes,12
tony,C,block1,projective,5,17,Tony has been sober for 20 years,8791,8.985416666666667,prove,low_prior,0.19,prove,male,NA,21,English,Yes,13
garage,MC,block1,projective,5,18,Garages are used to store cars and other things,12525,8.985416666666667,MC,NA,0.07,MC,male,NA,21,English,Yes,14
mary,C,block1,projective,5,19,Mary is a middle school student,6431,8.985416666666667,confess,low_prior,0.69,confess,male,NA,21,English,Yes,15
julian,C,block1,projective,5,20,Julian is Cuban,9077,8.985416666666667,hear,high_prior,0.84,hear,male,NA,21,English,Yes,16
emily,C,block1,projective,5,21,Emily never has any money,20927,8.985416666666667,announce,low_prior,0.77,announce,male,NA,21,English,Yes,17
emma,C,block1,projective,5,22,Emma is in first grade,7759,8.985416666666667,see,low_prior,0.89,see,male,NA,21,English,Yes,18
frank,C,block1,projective,5,23,Frank is allergic to cats,6955,8.985416666666667,pretend,low_prior,0.16,pretend,male,NA,21,English,Yes,19
zoe,C,block1,projective,5,24,Zoe is a math major,7218,8.985416666666667,think,high_prior,0.07,think,male,NA,21,English,Yes,20
josh,C,block1,projective,5,25,Josh is a 5-year old boy,7596,8.985416666666667,reveal,high_prior,0.94,reveal,male,NA,21,English,Yes,21
muffins,MC,block1,projective,5,26,Muffins are sold at the bakery,17490,8.985416666666667,MC,NA,0.02,MC,male,NA,21,English,Yes,22
sophia,C,block1,projective,5,27,Sophia is a high end fashion model,6324,8.985416666666667,know,low_prior,0.92,know,male,NA,21,English,Yes,23
josie,C,block1,projective,5,28,Josie doesn't have a passport,9472,8.985416666666667,establish,low_prior,0.09,establish,male,NA,21,English,Yes,24
hat,MC,block1,projective,5,29,Hats are worn on the head,6440,8.985416666666667,MC,NA,0.02,MC,male,NA,21,English,Yes,25
mia,C,block1,projective,5,30,Mia is a college student,13187,8.985416666666667,demonstrate,high_prior,0.2,demonstrate,male,NA,21,English,Yes,26
grace,C,block2,prior,5,32,Grace hates her sister,7017,8.985416666666667,admit,low_prior,0.18,admit,male,NA,21,English,Yes,27
muffins,MC,block2,prior,5,33,Muffins are sold at the bakery,8188,8.985416666666667,MC,NA,0.5,MC,male,NA,21,English,Yes,28
emily,C,block2,prior,5,34,Emily never has any money,7025,8.985416666666667,announce,low_prior,0.08,announce,male,NA,21,English,Yes,29
mary,C,block2,prior,5,35,Mary is a middle school student,4826,8.985416666666667,confess,low_prior,0.07,confess,male,NA,21,English,Yes,30
garage,MC,block2,prior,5,36,Garages are used to store cars and other things,8313,8.985416666666667,MC,NA,0.49,MC,male,NA,21,English,Yes,31
olivia,C,block2,prior,5,37,Olivia has two small children,4518,8.985416666666667,say,low_prior,0.48,say,male,NA,21,English,Yes,32
pizza,MC,block2,prior,5,38,Pizza is sold at the pizzeria,5660,8.985416666666667,MC,NA,0.49,MC,male,NA,21,English,Yes,33
julian,C,block2,prior,5,39,Julian is Cuban,3390,8.985416666666667,hear,high_prior,0.63,hear,male,NA,21,English,Yes,34
frank,C,block2,prior,5,40,Frank is allergic to cats,3859,8.985416666666667,pretend,low_prior,0.12,pretend,male,NA,21,English,Yes,35
josh,C,block2,prior,5,41,Josh is a 5-year old boy,10153,8.985416666666667,reveal,high_prior,0.63,reveal,male,NA,21,English,Yes,36
sophia,C,block2,prior,5,42,Sophia is a high end fashion model,5420,8.985416666666667,know,low_prior,0.34,know,male,NA,21,English,Yes,37
ballet,MC,block2,prior,5,43,Ballet is a type of dance,4327,8.985416666666667,MC,NA,0.49,MC,male,NA,21,English,Yes,38
hat,MC,block2,prior,5,44,Hats are worn on the head,5161,8.985416666666667,MC,NA,0.51,MC,male,NA,21,English,Yes,39
jayden,C,block2,prior,5,45,Jayden doesn't have a driver's license,5549,8.985416666666667,acknowledge,low_prior,0.12,acknowledge,male,NA,21,English,Yes,40
owen,C,block2,prior,5,46,Owen lives in Chicago,4519,8.985416666666667,confirm,high_prior,0.74,confirm,male,NA,21,English,Yes,41
danny,C,block2,prior,5,47,Danny loves cake,4267,8.985416666666667,be_right,high_prior,0.84,be_right,male,NA,21,English,Yes,42
josie,C,block2,prior,5,48,Josie doesn't have a passport,4364,8.985416666666667,establish,low_prior,0.04,establish,male,NA,21,English,Yes,43
zoe,C,block2,prior,5,49,Zoe is a math major,4417,8.985416666666667,think,high_prior,0.85,think,male,NA,21,English,Yes,44
tony,C,block2,prior,5,50,Tony has been sober for 20 years,4644,8.985416666666667,prove,low_prior,0.2,prove,male,NA,21,English,Yes,45
jackson,C,block2,prior,5,51,Jackson is training for a marathon,6036,8.985416666666667,be_annoyed,high_prior,0.65,be_annoyed,male,NA,21,English,Yes,46
kids,MC,block2,prior,5,52,Many children like ice cream,4915,8.985416666666667,MC,NA,0.49,MC,male,NA,21,English,Yes,47
jon,C,block2,prior,5,53,Jon lives 2 blocks away from work,6237,8.985416666666667,discover,high_prior,0.76,discover,male,NA,21,English,Yes,48
emma,C,block2,prior,5,54,Emma is in first grade,3833,8.985416666666667,see,low_prior,0.61,see,male,NA,21,English,Yes,49
mia,C,block2,prior,5,55,Mia is a college student,4971,8.985416666666667,demonstrate,high_prior,0.7,demonstrate,male,NA,21,English,Yes,50
charley,C,block2,prior,5,56,Charley lives in Mexico,3917,8.985416666666667,inform,high_prior,0.96,inform,male,NA,21,English,Yes,51
isabella,C,block2,prior,5,57,Isabella is from Argentina,4695,8.985416666666667,suggest,high_prior,0.49,suggest,male,NA,21,English,Yes,52
emily,C,block1,prior,6,5,Emily has been saving for a year,9650,7.557716666666667,think,high_prior,0.27,think,female,It really made me look deeper at how I come to conclusions based on peoples statements,34,English,Yes,1
sophia,C,block1,prior,6,6,Sophia is a hipster,8692,7.557716666666667,admit,high_prior,0.41,admit,female,It really made me look deeper at how I come to conclusions based on peoples statements,34,English,Yes,2
garage,MC,block1,prior,6,7,Garages are used to store cars and other things,11667,7.557716666666667,MC,NA,0,MC,female,It really made me look deeper at how I come to conclusions based on peoples statements,34,English,Yes,3
frank,C,block1,prior,6,8,Frank is allergic to cats,4914,7.557716666666667,confess,low_prior,0,confess,female,It really made me look deeper at how I come to conclusions based on peoples statements,34,English,Yes,4
tony,C,block1,prior,6,9,Tony really likes to party with his friends,5599,7.557716666666667,demonstrate,high_prior,0.78,demonstrate,female,It really made me look deeper at how I come to conclusions based on peoples statements,34,English,Yes,5
jayden,C,block1,prior,6,10,Jayden doesn't have a driver's license,4236,7.557716666666667,pretend,low_prior,0,pretend,female,It really made me look deeper at how I come to conclusions based on peoples statements,34,English,Yes,6
grace,C,block1,prior,6,11,Grace loves her sister,5555,7.557716666666667,announce,high_prior,0.95,announce,female,It really made me look deeper at how I come to conclusions based on peoples statements,34,English,Yes,7
charley,C,block1,prior,6,12,Charley lives in Korea,7452,7.557716666666667,confirm,low_prior,0.16,confirm,female,It really made me look deeper at how I come to conclusions based on peoples statements,34,English,Yes,8
hat,MC,block1,prior,6,13,Hats are worn on the head,5366,7.557716666666667,MC,NA,0.5,MC,female,It really made me look deeper at how I come to conclusions based on peoples statements,34,English,Yes,9
muffins,MC,block1,prior,6,14,Muffins are sold at the bakery,5724,7.557716666666667,MC,NA,0.5,MC,female,It really made me look deeper at how I come to conclusions based on peoples statements,34,English,Yes,10
emma,C,block1,prior,6,15,Emma is in first grade,5126,7.557716666666667,say,low_prior,0.04,say,female,It really made me look deeper at how I come to conclusions based on peoples statements,34,English,Yes,11
jackson,C,block1,prior,6,16,Jackson is training for a marathon,4968,7.557716666666667,inform,high_prior,0.78,inform,female,It really made me look deeper at how I come to conclusions based on peoples statements,34,English,Yes,12
isabella,C,block1,prior,6,17,Isabella is a vegetarian,3606,7.557716666666667,know,low_prior,0,know,female,It really made me look deeper at how I come to conclusions based on peoples statements,34,English,Yes,13
kids,MC,block1,prior,6,18,Many children like ice cream,26911,7.557716666666667,MC,NA,0.47,MC,female,It really made me look deeper at how I come to conclusions based on peoples statements,34,English,Yes,14
zoe,C,block1,prior,6,19,Zoe is a math major,3859,7.557716666666667,see,high_prior,0.73,see,female,It really made me look deeper at how I come to conclusions based on peoples statements,34,English,Yes,15
ballet,MC,block1,prior,6,20,Ballet is a type of dance,4200,7.557716666666667,MC,NA,0.5,MC,female,It really made me look deeper at how I come to conclusions based on peoples statements,34,English,Yes,16
josh,C,block1,prior,6,21,Josh is a 5-year old boy,5583,7.557716666666667,reveal,high_prior,0.5,reveal,female,It really made me look deeper at how I come to conclusions based on peoples statements,34,English,Yes,17
josie,C,block1,prior,6,22,Josie loves France,3301,7.557716666666667,hear,high_prior,0.76,hear,female,It really made me look deeper at how I come to conclusions based on peoples statements,34,English,Yes,18
mia,C,block1,prior,6,23,Mia is a college student,4314,7.557716666666667,be_annoyed,high_prior,0.72,be_annoyed,female,It really made me look deeper at how I come to conclusions based on peoples statements,34,English,Yes,19
olivia,C,block1,prior,6,24,Olivia has two small children,5467,7.557716666666667,prove,low_prior,0,prove,female,It really made me look deeper at how I come to conclusions based on peoples statements,34,English,Yes,20
danny,C,block1,prior,6,25,Danny is a diabetic,4104,7.557716666666667,be_right,low_prior,0,be_right,female,It really made me look deeper at how I come to conclusions based on peoples statements,34,English,Yes,21
pizza,MC,block1,prior,6,26,Pizza is sold at the pizzeria,4268,7.557716666666667,MC,NA,0.76,MC,female,It really made me look deeper at how I come to conclusions based on peoples statements,34,English,Yes,22
mary,C,block1,prior,6,27,Mary is a middle school student,12383,7.557716666666667,suggest,low_prior,0,suggest,female,It really made me look deeper at how I come to conclusions based on peoples statements,34,English,Yes,23
owen,C,block1,prior,6,28,Owen lives in New Orleans,16904,7.557716666666667,acknowledge,low_prior,0.03,acknowledge,female,It really made me look deeper at how I come to conclusions based on peoples statements,34,English,Yes,24
jon,C,block1,prior,6,29,Jon lives 10 miles away from work,4462,7.557716666666667,establish,low_prior,0.06,establish,female,It really made me look deeper at how I come to conclusions based on peoples statements,34,English,Yes,25
julian,C,block1,prior,6,30,Julian is Cuban,3512,7.557716666666667,discover,high_prior,0.72,discover,female,It really made me look deeper at how I come to conclusions based on peoples statements,34,English,Yes,26
julian,C,block2,projective,6,32,Julian is Cuban,15403,7.557716666666667,discover,high_prior,1,discover,female,It really made me look deeper at how I come to conclusions based on peoples statements,34,English,Yes,27
josh,C,block2,projective,6,33,Josh is a 5-year old boy,9790,7.557716666666667,reveal,high_prior,1,reveal,female,It really made me look deeper at how I come to conclusions based on peoples statements,34,English,Yes,28
danny,C,block2,projective,6,34,Danny is a diabetic,6539,7.557716666666667,be_right,low_prior,0,be_right,female,It really made me look deeper at how I come to conclusions based on peoples statements,34,English,Yes,29
mary,C,block2,projective,6,35,Mary is a middle school student,8013,7.557716666666667,suggest,low_prior,0,suggest,female,It really made me look deeper at how I come to conclusions based on peoples statements,34,English,Yes,30
grace,C,block2,projective,6,36,Grace loves her sister,5411,7.557716666666667,announce,high_prior,1,announce,female,It really made me look deeper at how I come to conclusions based on peoples statements,34,English,Yes,31
tony,C,block2,projective,6,37,Tony really likes to party with his friends,18201,7.557716666666667,demonstrate,high_prior,0.26,demonstrate,female,It really made me look deeper at how I come to conclusions based on peoples statements,34,English,Yes,32
pizza,MC,block2,projective,6,38,Pizza is sold at the pizzeria,4648,7.557716666666667,MC,NA,0,MC,female,It really made me look deeper at how I come to conclusions based on peoples statements,34,English,Yes,33
sophia,C,block2,projective,6,39,Sophia is a hipster,5785,7.557716666666667,admit,high_prior,0.87,admit,female,It really made me look deeper at how I come to conclusions based on peoples statements,34,English,Yes,34
hat,MC,block2,projective,6,40,Hats are worn on the head,4960,7.557716666666667,MC,NA,0,MC,female,It really made me look deeper at how I come to conclusions based on peoples statements,34,English,Yes,35
jackson,C,block2,projective,6,41,Jackson is training for a marathon,4860,7.557716666666667,inform,high_prior,0.94,inform,female,It really made me look deeper at how I come to conclusions based on peoples statements,34,English,Yes,36
jayden,C,block2,projective,6,42,Jayden doesn't have a driver's license,9530,7.557716666666667,pretend,low_prior,0,pretend,female,It really made me look deeper at how I come to conclusions based on peoples statements,34,English,Yes,37
jon,C,block2,projective,6,43,Jon lives 10 miles away from work,7336,7.557716666666667,establish,low_prior,0.4,establish,female,It really made me look deeper at how I come to conclusions based on peoples statements,34,English,Yes,38
garage,MC,block2,projective,6,44,Garages are used to store cars and other things,6556,7.557716666666667,MC,NA,0,MC,female,It really made me look deeper at how I come to conclusions based on peoples statements,34,English,Yes,39
mia,C,block2,projective,6,45,Mia is a college student,3714,7.557716666666667,be_annoyed,high_prior,1,be_annoyed,female,It really made me look deeper at how I come to conclusions based on peoples statements,34,English,Yes,40
muffins,MC,block2,projective,6,46,Muffins are sold at the bakery,4882,7.557716666666667,MC,NA,0,MC,female,It really made me look deeper at how I come to conclusions based on peoples statements,34,English,Yes,41
ballet,MC,block2,projective,6,47,Ballet is a type of dance,3784,7.557716666666667,MC,NA,0,MC,female,It really made me look deeper at how I come to conclusions based on peoples statements,34,English,Yes,42
olivia,C,block2,projective,6,48,Olivia has two small children,5762,7.557716666666667,prove,low_prior,0.69,prove,female,It really made me look deeper at how I come to conclusions based on peoples statements,34,English,Yes,43
josie,C,block2,projective,6,49,Josie loves France,3935,7.557716666666667,hear,high_prior,1,hear,female,It really made me look deeper at how I come to conclusions based on peoples statements,34,English,Yes,44
charley,C,block2,projective,6,50,Charley lives in Korea,5403,7.557716666666667,confirm,low_prior,0.87,confirm,female,It really made me look deeper at how I come to conclusions based on peoples statements,34,English,Yes,45
frank,C,block2,projective,6,51,Frank is allergic to cats,7170,7.557716666666667,confess,low_prior,0.63,confess,female,It really made me look deeper at how I come to conclusions based on peoples statements,34,English,Yes,46
emily,C,block2,projective,6,52,Emily has been saving for a year,5372,7.557716666666667,think,high_prior,0.08,think,female,It really made me look deeper at how I come to conclusions based on peoples statements,34,English,Yes,47
owen,C,block2,projective,6,53,Owen lives in New Orleans,5202,7.557716666666667,acknowledge,low_prior,1,acknowledge,female,It really made me look deeper at how I come to conclusions based on peoples statements,34,English,Yes,48
zoe,C,block2,projective,6,54,Zoe is a math major,3643,7.557716666666667,see,high_prior,1,see,female,It really made me look deeper at how I come to conclusions based on peoples statements,34,English,Yes,49
kids,MC,block2,projective,6,55,Many children like ice cream,4072,7.557716666666667,MC,NA,0,MC,female,It really made me look deeper at how I come to conclusions based on peoples statements,34,English,Yes,50
emma,C,block2,projective,6,56,Emma is in first grade,5375,7.557716666666667,say,low_prior,0,say,female,It really made me look deeper at how I come to conclusions based on peoples statements,34,English,Yes,51
isabella,C,block2,projective,6,57,Isabella is a vegetarian,18514,7.557716666666667,know,low_prior,0.92,know,female,It really made me look deeper at how I come to conclusions based on peoples statements,34,English,Yes,52
grace,C,block1,prior,9,5,Grace hates her sister,13950,8.234133333333334,prove,low_prior,0.1,prove,female,NA,33,english,Yes,1
mia,C,block1,prior,9,6,Mia is a nun,5499,8.234133333333334,establish,low_prior,0.01,establish,female,NA,33,english,Yes,2
garage,MC,block1,prior,9,7,Garages are used to store cars and other things,8003,8.234133333333334,MC,NA,0.43,MC,female,NA,33,english,Yes,3
jackson,C,block1,prior,9,8,Jackson is obese,6300,8.234133333333334,think,low_prior,0.04,think,female,NA,33,english,Yes,4
pizza,MC,block1,prior,9,9,Pizza is sold at the pizzeria,8033,8.234133333333334,MC,NA,0.76,MC,female,NA,33,english,Yes,5
tony,C,block1,prior,9,10,Tony really likes to party with his friends,5813,8.234133333333334,hear,high_prior,0.88,hear,female,NA,33,english,Yes,6
kids,MC,block1,prior,9,11,Many children like ice cream,13318,8.234133333333334,MC,NA,0.53,MC,female,NA,33,english,Yes,7
olivia,C,block1,prior,9,12,Olivia has two small children,6265,8.234133333333334,suggest,low_prior,0.09,suggest,female,NA,33,english,Yes,8
josh,C,block1,prior,9,13,Josh is a 5-year old boy,6848,8.234133333333334,acknowledge,high_prior,0.6,acknowledge,female,NA,33,english,Yes,9
zoe,C,block1,prior,9,14,Zoe is a math major,4942,8.234133333333334,inform,high_prior,0.74,inform,female,NA,33,english,Yes,10
hat,MC,block1,prior,9,15,Hats are worn on the head,6060,8.234133333333334,MC,NA,0.56,MC,female,NA,33,english,Yes,11
julian,C,block1,prior,9,16,Julian is German,6917,8.234133333333334,admit,low_prior,0.43,admit,female,NA,33,english,Yes,12
owen,C,block1,prior,9,17,Owen lives in Chicago,6214,8.234133333333334,discover,high_prior,0.91,discover,female,NA,33,english,Yes,13
jayden,C,block1,prior,9,18,Jayden's car is in the shop,7256,8.234133333333334,demonstrate,high_prior,0.66,demonstrate,female,NA,33,english,Yes,14
frank,C,block1,prior,9,19,Frank is allergic to cats,5513,8.234133333333334,confess,low_prior,0,confess,female,NA,33,english,Yes,15
ballet,MC,block1,prior,9,20,Ballet is a type of dance,6592,8.234133333333334,MC,NA,0.5,MC,female,NA,33,english,Yes,16
jon,C,block1,prior,9,21,Jon lives 2 blocks away from work,8644,8.234133333333334,say,high_prior,0.95,say,female,NA,33,english,Yes,17
danny,C,block1,prior,9,22,Danny is a diabetic,5829,8.234133333333334,pretend,low_prior,0.11,pretend,female,NA,33,english,Yes,18
isabella,C,block1,prior,9,23,Isabella is from Argentina,4380,8.234133333333334,see,high_prior,0.52,see,female,NA,33,english,Yes,19
sophia,C,block1,prior,9,24,Sophia is a high end fashion model,11812,8.234133333333334,confirm,low_prior,0.25,confirm,female,NA,33,english,Yes,20
mary,C,block1,prior,9,25,Mary is taking a prenatal yoga class,8351,8.234133333333334,know,high_prior,0.95,know,female,NA,33,english,Yes,21
emma,C,block1,prior,9,26,Emma is in first grade,8348,8.234133333333334,be_right,low_prior,0.33,be_right,female,NA,33,english,Yes,22
josie,C,block1,prior,9,27,Josie loves France,9514,8.234133333333334,be_annoyed,high_prior,0.95,be_annoyed,female,NA,33,english,Yes,23
charley,C,block1,prior,9,28,Charley lives in Mexico,4595,8.234133333333334,reveal,high_prior,0.8,reveal,female,NA,33,english,Yes,24
emily,C,block1,prior,9,29,Emily never has any money,7810,8.234133333333334,announce,low_prior,0.25,announce,female,NA,33,english,Yes,25
muffins,MC,block1,prior,9,30,Muffins are sold at the bakery,4448,8.234133333333334,MC,NA,0.77,MC,female,NA,33,english,Yes,26
pizza,MC,block2,projective,9,32,Pizza is sold at the pizzeria,11785,8.234133333333334,MC,NA,0.07,MC,female,NA,33,english,Yes,27
jon,C,block2,projective,9,33,Jon lives 2 blocks away from work,14594,8.234133333333334,say,high_prior,0.64,say,female,NA,33,english,Yes,28
grace,C,block2,projective,9,34,Grace hates her sister,11440,8.234133333333334,prove,low_prior,0.29,prove,female,NA,33,english,Yes,29
garage,MC,block2,projective,9,35,Garages are used to store cars and other things,11657,8.234133333333334,MC,NA,0.04,MC,female,NA,33,english,Yes,30
charley,C,block2,projective,9,36,Charley lives in Mexico,9783,8.234133333333334,reveal,high_prior,0.33,reveal,female,NA,33,english,Yes,31
emma,C,block2,projective,9,37,Emma is in first grade,6410,8.234133333333334,be_right,low_prior,0.26,be_right,female,NA,33,english,Yes,32
tony,C,block2,projective,9,38,Tony really likes to party with his friends,11469,8.234133333333334,hear,high_prior,0.67,hear,female,NA,33,english,Yes,33
jayden,C,block2,projective,9,39,Jayden's car is in the shop,8826,8.234133333333334,demonstrate,high_prior,0.31,demonstrate,female,NA,33,english,Yes,34
kids,MC,block2,projective,9,40,Many children like ice cream,12110,8.234133333333334,MC,NA,0.01,MC,female,NA,33,english,Yes,35
mary,C,block2,projective,9,41,Mary is taking a prenatal yoga class,10006,8.234133333333334,know,high_prior,1,know,female,NA,33,english,Yes,36
josie,C,block2,projective,9,42,Josie loves France,10198,8.234133333333334,be_annoyed,high_prior,1,be_annoyed,female,NA,33,english,Yes,37
julian,C,block2,projective,9,43,Julian is German,8556,8.234133333333334,admit,low_prior,0.8,admit,female,NA,33,english,Yes,38
ballet,MC,block2,projective,9,44,Ballet is a type of dance,11432,8.234133333333334,MC,NA,0.03,MC,female,NA,33,english,Yes,39
zoe,C,block2,projective,9,45,Zoe is a math major,9866,8.234133333333334,inform,high_prior,0.89,inform,female,NA,33,english,Yes,40
olivia,C,block2,projective,9,46,Olivia has two small children,9289,8.234133333333334,suggest,low_prior,0.29,suggest,female,NA,33,english,Yes,41
mia,C,block2,projective,9,47,Mia is a nun,9705,8.234133333333334,establish,low_prior,0.3,establish,female,NA,33,english,Yes,42
owen,C,block2,projective,9,48,Owen lives in Chicago,7113,8.234133333333334,discover,high_prior,0.77,discover,female,NA,33,english,Yes,43
danny,C,block2,projective,9,49,Danny is a diabetic,8779,8.234133333333334,pretend,low_prior,0.19,pretend,female,NA,33,english,Yes,44
sophia,C,block2,projective,9,50,Sophia is a high end fashion model,7909,8.234133333333334,confirm,low_prior,0.23,confirm,female,NA,33,english,Yes,45
muffins,MC,block2,projective,9,51,Muffins are sold at the bakery,8169,8.234133333333334,MC,NA,0.13,MC,female,NA,33,english,Yes,46
jackson,C,block2,projective,9,52,Jackson is obese,7931,8.234133333333334,think,low_prior,0.15,think,female,NA,33,english,Yes,47
isabella,C,block2,projective,9,53,Isabella is from Argentina,11515,8.234133333333334,see,high_prior,0.41,see,female,NA,33,english,Yes,48
hat,MC,block2,projective,9,54,Hats are worn on the head,5333,8.234133333333334,MC,NA,0.02,MC,female,NA,33,english,Yes,49
frank,C,block2,projective,9,55,Frank is allergic to cats,8693,8.234133333333334,confess,low_prior,0.68,confess,female,NA,33,english,Yes,50
josh,C,block2,projective,9,56,Josh is a 5-year old boy,8916,8.234133333333334,acknowledge,high_prior,0.86,acknowledge,female,NA,33,english,Yes,51
emily,C,block2,projective,9,57,Emily never has any money,9112,8.234133333333334,announce,low_prior,0.31,announce,female,NA,33,english,Yes,52
muffins,MC,block1,prior,10,5,Muffins are sold at the bakery,3250,9.497083333333334,MC,NA,0.77,MC,male,NA,41,eng,Yes,1
emma,C,block1,prior,10,6,Emma is in first grade,20365,9.497083333333334,know,low_prior,0.15,know,male,NA,41,eng,Yes,2
grace,C,block1,prior,10,7,Grace hates her sister,3869,9.497083333333334,confirm,low_prior,0.61,confirm,male,NA,41,eng,Yes,3
olivia,C,block1,prior,10,8,Olivia has two small children,4587,9.497083333333334,discover,low_prior,0.04,discover,male,NA,41,eng,Yes,4
jon,C,block1,prior,10,9,Jon lives 10 miles away from work,7159,9.497083333333334,prove,low_prior,0.1,prove,male,NA,41,eng,Yes,5
tony,C,block1,prior,10,10,Tony really likes to party with his friends,4074,9.497083333333334,suggest,high_prior,0.4,suggest,male,NA,41,eng,Yes,6
jayden,C,block1,prior,10,11,Jayden's car is in the shop,3413,9.497083333333334,confess,high_prior,0.78,confess,male,NA,41,eng,Yes,7
emily,C,block1,prior,10,12,Emily never has any money,5005,9.497083333333334,reveal,low_prior,0.09,reveal,male,NA,41,eng,Yes,8
charley,C,block1,prior,10,13,Charley lives in Mexico,18126,9.497083333333334,admit,high_prior,0.94,admit,male,NA,41,eng,Yes,9
danny,C,block1,prior,10,14,Danny loves cake,2053,9.497083333333334,be_annoyed,high_prior,0.72,be_annoyed,male,NA,41,eng,Yes,10
jackson,C,block1,prior,10,15,Jackson is training for a marathon,3677,9.497083333333334,acknowledge,high_prior,0.75,acknowledge,male,NA,41,eng,Yes,11
owen,C,block1,prior,10,16,Owen lives in New Orleans,4596,9.497083333333334,inform,low_prior,0.07,inform,male,NA,41,eng,Yes,12
garage,MC,block1,prior,10,17,Garages are used to store cars and other things,4780,9.497083333333334,MC,NA,0.17,MC,male,NA,41,eng,Yes,13
kids,MC,block1,prior,10,18,Many children like ice cream,5727,9.497083333333334,MC,NA,0.54,MC,male,NA,41,eng,Yes,14
mary,C,block1,prior,10,19,Mary is taking a prenatal yoga class,4315,9.497083333333334,announce,high_prior,0.95,announce,male,NA,41,eng,Yes,15
frank,C,block1,prior,10,20,Frank has always wanted a pet,3615,9.497083333333334,demonstrate,high_prior,0.05,demonstrate,male,NA,41,eng,Yes,16
zoe,C,block1,prior,10,21,Zoe is 5 years old,2903,9.497083333333334,say,low_prior,0.02,say,male,NA,41,eng,Yes,17
mia,C,block1,prior,10,22,Mia is a nun,3444,9.497083333333334,pretend,low_prior,0.01,pretend,male,NA,41,eng,Yes,18
josie,C,block1,prior,10,23,Josie loves France,3566,9.497083333333334,hear,high_prior,0.94,hear,male,NA,41,eng,Yes,19
hat,MC,block1,prior,10,24,Hats are worn on the head,5156,9.497083333333334,MC,NA,0.36,MC,male,NA,41,eng,Yes,20
sophia,C,block1,prior,10,25,Sophia is a hipster,2903,9.497083333333334,establish,high_prior,0.56,establish,male,NA,41,eng,Yes,21
pizza,MC,block1,prior,10,26,Pizza is sold at the pizzeria,14656,9.497083333333334,MC,NA,0.46,MC,male,NA,41,eng,Yes,22
isabella,C,block1,prior,10,27,Isabella is a vegetarian,2394,9.497083333333334,think,low_prior,0.03,think,male,NA,41,eng,Yes,23
julian,C,block1,prior,10,28,Julian is German,2541,9.497083333333334,see,low_prior,0.12,see,male,NA,41,eng,Yes,24
ballet,MC,block1,prior,10,29,Ballet is a type of dance,3319,9.497083333333334,MC,NA,0.31,MC,male,NA,41,eng,Yes,25
josh,C,block1,prior,10,30,Josh is a 5-year old boy,2850,9.497083333333334,be_right,high_prior,0.62,be_right,male,NA,41,eng,Yes,26
charley,C,block2,projective,10,32,Charley lives in Mexico,7095,9.497083333333334,admit,high_prior,0.68,admit,male,NA,41,eng,Yes,27
josh,C,block2,projective,10,33,Josh is a 5-year old boy,5678,9.497083333333334,be_right,high_prior,0.27,be_right,male,NA,41,eng,Yes,28
mary,C,block2,projective,10,34,Mary is taking a prenatal yoga class,23671,9.497083333333334,announce,high_prior,0.47,announce,male,NA,41,eng,Yes,29
jayden,C,block2,projective,10,35,Jayden's car is in the shop,6532,9.497083333333334,confess,high_prior,0.16,confess,male,NA,41,eng,Yes,30
owen,C,block2,projective,10,36,Owen lives in New Orleans,6415,9.497083333333334,inform,low_prior,0.6,inform,male,NA,41,eng,Yes,31
isabella,C,block2,projective,10,37,Isabella is a vegetarian,3818,9.497083333333334,think,low_prior,0.21,think,male,NA,41,eng,Yes,32
kids,MC,block2,projective,10,38,Many children like ice cream,13158,9.497083333333334,MC,NA,0.66,MC,male,NA,41,eng,Yes,33
frank,C,block2,projective,10,39,Frank has always wanted a pet,6049,9.497083333333334,demonstrate,high_prior,0.75,demonstrate,male,NA,41,eng,Yes,34
emily,C,block2,projective,10,40,Emily never has any money,5118,9.497083333333334,reveal,low_prior,0.28,reveal,male,NA,41,eng,Yes,35
danny,C,block2,projective,10,41,Danny loves cake,42338,9.497083333333334,be_annoyed,high_prior,0.66,be_annoyed,male,NA,41,eng,Yes,36
garage,MC,block2,projective,10,42,Garages are used to store cars and other things,5592,9.497083333333334,MC,NA,0.94,MC,male,NA,41,eng,Yes,37
jon,C,block2,projective,10,43,Jon lives 10 miles away from work,3514,9.497083333333334,prove,low_prior,0.78,prove,male,NA,41,eng,Yes,38
olivia,C,block2,projective,10,44,Olivia has two small children,4201,9.497083333333334,discover,low_prior,0.41,discover,male,NA,41,eng,Yes,39
ballet,MC,block2,projective,10,45,Ballet is a type of dance,8658,9.497083333333334,MC,NA,0.11,MC,male,NA,41,eng,Yes,40
julian,C,block2,projective,10,46,Julian is German,9806,9.497083333333334,see,low_prior,0.22,see,male,NA,41,eng,Yes,41
pizza,MC,block2,projective,10,47,Pizza is sold at the pizzeria,4341,9.497083333333334,MC,NA,0.13,MC,male,NA,41,eng,Yes,42
muffins,MC,block2,projective,10,48,Muffins are sold at the bakery,16915,9.497083333333334,MC,NA,0.7,MC,male,NA,41,eng,Yes,43
grace,C,block2,projective,10,49,Grace hates her sister,4380,9.497083333333334,confirm,low_prior,0.3,confirm,male,NA,41,eng,Yes,44
hat,MC,block2,projective,10,50,Hats are worn on the head,9709,9.497083333333334,MC,NA,0.12,MC,male,NA,41,eng,Yes,45
tony,C,block2,projective,10,51,Tony really likes to party with his friends,3174,9.497083333333334,suggest,high_prior,0.28,suggest,male,NA,41,eng,Yes,46
zoe,C,block2,projective,10,52,Zoe is 5 years old,3476,9.497083333333334,say,low_prior,0.63,say,male,NA,41,eng,Yes,47
mia,C,block2,projective,10,53,Mia is a nun,5392,9.497083333333334,pretend,low_prior,0.21,pretend,male,NA,41,eng,Yes,48
emma,C,block2,projective,10,54,Emma is in first grade,13372,9.497083333333334,know,low_prior,0.18,know,male,NA,41,eng,Yes,49
sophia,C,block2,projective,10,55,Sophia is a hipster,2001,9.497083333333334,establish,high_prior,0.17,establish,male,NA,41,eng,Yes,50
jackson,C,block2,projective,10,56,Jackson is training for a marathon,3173,9.497083333333334,acknowledge,high_prior,0.58,acknowledge,male,NA,41,eng,Yes,51
josie,C,block2,projective,10,57,Josie loves France,7236,9.497083333333334,hear,high_prior,0.92,hear,male,NA,41,eng,Yes,52
grace,C,block1,projective,11,5,Grace loves her sister,16990,11.4486,reveal,high_prior,0.1,reveal,male,n/a,33,English,Yes,1
owen,C,block1,projective,11,6,Owen lives in New Orleans,9072,11.4486,discover,low_prior,0.04,discover,male,n/a,33,English,Yes,2
emma,C,block1,projective,11,7,Emma is in first grade,6320,11.4486,inform,low_prior,0.08,inform,male,n/a,33,English,Yes,3
olivia,C,block1,projective,11,8,Olivia works the third shift,5664,11.4486,confirm,high_prior,0.3,confirm,male,n/a,33,English,Yes,4
mary,C,block1,projective,11,9,Mary is taking a prenatal yoga class,13056,11.4486,say,high_prior,0.73,say,male,n/a,33,English,Yes,5
julian,C,block1,projective,11,10,Julian is German,7079,11.4486,know,low_prior,0.04,know,male,n/a,33,English,Yes,6
sophia,C,block1,projective,11,11,Sophia is a hipster,5584,11.4486,acknowledge,high_prior,0.04,acknowledge,male,n/a,33,English,Yes,7
kids,MC,block1,projective,11,12,Many children like ice cream,6560,11.4486,MC,NA,0.03,MC,male,n/a,33,English,Yes,8
hat,MC,block1,projective,11,13,Hats are worn on the head,6312,11.4486,MC,NA,0.06,MC,male,n/a,33,English,Yes,9
pizza,MC,block1,projective,11,14,Pizza is sold at the pizzeria,10832,11.4486,MC,NA,0.15,MC,male,n/a,33,English,Yes,10
tony,C,block1,projective,11,15,Tony really likes to party with his friends,9024,11.4486,see,high_prior,0.43,see,male,n/a,33,English,Yes,11
danny,C,block1,projective,11,16,Danny is a diabetic,6232,11.4486,suggest,low_prior,0.04,suggest,male,n/a,33,English,Yes,12
garage,MC,block1,projective,11,17,Garages are used to store cars and other things,5920,11.4486,MC,NA,0.04,MC,male,n/a,33,English,Yes,13
emily,C,block1,projective,11,18,Emily has been saving for a year,45743,11.4486,hear,high_prior,0.66,hear,male,n/a,33,English,Yes,14
frank,C,block1,projective,11,19,Frank is allergic to cats,6552,11.4486,pretend,low_prior,0.33,pretend,male,n/a,33,English,Yes,15
zoe,C,block1,projective,11,20,Zoe is 5 years old,5152,11.4486,demonstrate,low_prior,0.02,demonstrate,male,n/a,33,English,Yes,16
jackson,C,block1,projective,11,21,Jackson is training for a marathon,6808,11.4486,confess,high_prior,0.7,confess,male,n/a,33,English,Yes,17
isabella,C,block1,projective,11,22,Isabella is a vegetarian,6056,11.4486,establish,low_prior,0.03,establish,male,n/a,33,English,Yes,18
jayden,C,block1,projective,11,23,Jayden doesn't have a driver's license,5640,11.4486,admit,low_prior,0.03,admit,male,n/a,33,English,Yes,19
josh,C,block1,projective,11,24,Josh is a 5-year old boy,8128,11.4486,think,high_prior,0.4,think,male,n/a,33,English,Yes,20
charley,C,block1,projective,11,25,Charley lives in Korea,4360,11.4486,prove,low_prior,0.03,prove,male,n/a,33,English,Yes,21
muffins,MC,block1,projective,11,26,Muffins are sold at the bakery,5440,11.4486,MC,NA,0.5,MC,male,n/a,33,English,Yes,22
ballet,MC,block1,projective,11,27,Ballet is a type of dance,5448,11.4486,MC,NA,0.31,MC,male,n/a,33,English,Yes,23
josie,C,block1,projective,11,28,Josie doesn't have a passport,11103,11.4486,be_right,low_prior,0,be_right,male,n/a,33,English,Yes,24
jon,C,block1,projective,11,29,Jon lives 2 blocks away from work,6359,11.4486,be_annoyed,high_prior,0.31,be_annoyed,male,n/a,33,English,Yes,25
mia,C,block1,projective,11,30,Mia is a college student,4383,11.4486,announce,high_prior,0.13,announce,male,n/a,33,English,Yes,26
tony,C,block2,prior,11,32,Tony really likes to party with his friends,4711,11.4486,see,high_prior,0.86,see,male,n/a,33,English,Yes,27
jackson,C,block2,prior,11,33,Jackson is training for a marathon,3071,11.4486,confess,high_prior,0.94,confess,male,n/a,33,English,Yes,28
emily,C,block2,prior,11,34,Emily has been saving for a year,2921,11.4486,hear,high_prior,0.49,hear,male,n/a,33,English,Yes,29
garage,MC,block2,prior,11,35,Garages are used to store cars and other things,5727,11.4486,MC,NA,0.36,MC,male,n/a,33,English,Yes,30
hat,MC,block2,prior,11,36,Hats are worn on the head,3287,11.4486,MC,NA,0.5,MC,male,n/a,33,English,Yes,31
jayden,C,block2,prior,11,37,Jayden doesn't have a driver's license,4695,11.4486,admit,low_prior,0.02,admit,male,n/a,33,English,Yes,32
mary,C,block2,prior,11,38,Mary is taking a prenatal yoga class,2735,11.4486,say,high_prior,0.85,say,male,n/a,33,English,Yes,33
zoe,C,block2,prior,11,39,Zoe is 5 years old,2976,11.4486,demonstrate,low_prior,0.07,demonstrate,male,n/a,33,English,Yes,34
mia,C,block2,prior,11,40,Mia is a college student,2952,11.4486,announce,high_prior,0.53,announce,male,n/a,33,English,Yes,35
owen,C,block2,prior,11,41,Owen lives in New Orleans,5433,11.4486,discover,low_prior,0.06,discover,male,n/a,33,English,Yes,36
charley,C,block2,prior,11,42,Charley lives in Korea,3407,11.4486,prove,low_prior,0.05,prove,male,n/a,33,English,Yes,37
kids,MC,block2,prior,11,43,Many children like ice cream,3089,11.4486,MC,NA,0.53,MC,male,n/a,33,English,Yes,38
josie,C,block2,prior,11,44,Josie doesn't have a passport,2704,11.4486,be_right,low_prior,0.02,be_right,male,n/a,33,English,Yes,39
emma,C,block2,prior,11,45,Emma is in first grade,3736,11.4486,inform,low_prior,0.5,inform,male,n/a,33,English,Yes,40
frank,C,block2,prior,11,46,Frank is allergic to cats,3776,11.4486,pretend,low_prior,0.03,pretend,male,n/a,33,English,Yes,41
ballet,MC,block2,prior,11,47,Ballet is a type of dance,3768,11.4486,MC,NA,0.5,MC,male,n/a,33,English,Yes,42
sophia,C,block2,prior,11,48,Sophia is a hipster,2136,11.4486,acknowledge,high_prior,0.33,acknowledge,male,n/a,33,English,Yes,43
grace,C,block2,prior,11,49,Grace loves her sister,3320,11.4486,reveal,high_prior,0.87,reveal,male,n/a,33,English,Yes,44
olivia,C,block2,prior,11,50,Olivia works the third shift,2375,11.4486,confirm,high_prior,0.78,confirm,male,n/a,33,English,Yes,45
muffins,MC,block2,prior,11,51,Muffins are sold at the bakery,3112,11.4486,MC,NA,0.49,MC,male,n/a,33,English,Yes,46
danny,C,block2,prior,11,52,Danny is a diabetic,4048,11.4486,suggest,low_prior,0.14,suggest,male,n/a,33,English,Yes,47
josh,C,block2,prior,11,53,Josh is a 5-year old boy,2688,11.4486,think,high_prior,0.62,think,male,n/a,33,English,Yes,48
isabella,C,block2,prior,11,54,Isabella is a vegetarian,3192,11.4486,establish,low_prior,0.02,establish,male,n/a,33,English,Yes,49
pizza,MC,block2,prior,11,55,Pizza is sold at the pizzeria,2560,11.4486,MC,NA,0.5,MC,male,n/a,33,English,Yes,50
julian,C,block2,prior,11,56,Julian is German,2824,11.4486,know,low_prior,0.07,know,male,n/a,33,English,Yes,51
jon,C,block2,prior,11,57,Jon lives 2 blocks away from work,2559,11.4486,be_annoyed,high_prior,0.83,be_annoyed,male,n/a,33,English,Yes,52
julian,C,block1,prior,12,5,Julian is Cuban,6527,10.595316666666667,know,high_prior,0.16,know,female,none,30,English,Yes,1
muffins,MC,block1,prior,12,6,Muffins are sold at the bakery,8256,10.595316666666667,MC,NA,0.84,MC,female,none,30,English,Yes,2
isabella,C,block1,prior,12,7,Isabella is from Argentina,5943,10.595316666666667,demonstrate,high_prior,0.72,demonstrate,female,none,30,English,Yes,3
mary,C,block1,prior,12,8,Mary is a middle school student,42160,10.595316666666667,pretend,low_prior,0.02,pretend,female,none,30,English,Yes,4
emily,C,block1,prior,12,9,Emily never has any money,5368,10.595316666666667,be_right,low_prior,0.01,be_right,female,none,30,English,Yes,5
garage,MC,block1,prior,12,10,Garages are used to store cars and other things,7463,10.595316666666667,MC,NA,0.13,MC,female,none,30,English,Yes,6
zoe,C,block1,prior,12,11,Zoe is 5 years old,5848,10.595316666666667,think,low_prior,0,think,female,none,30,English,Yes,7
frank,C,block1,prior,12,12,Frank is allergic to cats,5576,10.595316666666667,confess,low_prior,0.02,confess,female,none,30,English,Yes,8
jon,C,block1,prior,12,13,Jon lives 2 blocks away from work,10784,10.595316666666667,prove,high_prior,0.99,prove,female,none,30,English,Yes,9
owen,C,block1,prior,12,14,Owen lives in New Orleans,6392,10.595316666666667,discover,low_prior,0.96,discover,female,none,30,English,Yes,10
josh,C,block1,prior,12,15,Josh is a 75-year old man,6039,10.595316666666667,be_annoyed,low_prior,0,be_annoyed,female,none,30,English,Yes,11
danny,C,block1,prior,12,16,Danny is a diabetic,5391,10.595316666666667,announce,low_prior,0.02,announce,female,none,30,English,Yes,12
jayden,C,block1,prior,12,17,Jayden doesn't have a driver's license,37600,10.595316666666667,establish,low_prior,0.02,establish,female,none,30,English,Yes,13
olivia,C,block1,prior,12,18,Olivia works the third shift,6824,10.595316666666667,confirm,high_prior,0.98,confirm,female,none,30,English,Yes,14
mia,C,block1,prior,12,19,Mia is a college student,16456,10.595316666666667,see,high_prior,0.51,see,female,none,30,English,Yes,15
sophia,C,block1,prior,12,20,Sophia is a hipster,5519,10.595316666666667,inform,high_prior,0.94,inform,female,none,30,English,Yes,16
ballet,MC,block1,prior,12,21,Ballet is a type of dance,65559,10.595316666666667,MC,NA,0.83,MC,female,none,30,English,Yes,17
hat,MC,block1,prior,12,22,Hats are worn on the head,5592,10.595316666666667,MC,NA,0.89,MC,female,none,30,English,Yes,18
tony,C,block1,prior,12,23,Tony has been sober for 20 years,5792,10.595316666666667,acknowledge,low_prior,0.05,acknowledge,female,none,30,English,Yes,19
grace,C,block1,prior,12,24,Grace loves her sister,44359,10.595316666666667,suggest,high_prior,0.92,suggest,female,none,30,English,Yes,20
charley,C,block1,prior,12,25,Charley lives in Mexico,27408,10.595316666666667,reveal,high_prior,0.96,reveal,female,none,30,English,Yes,21
josie,C,block1,prior,12,26,Josie loves France,5600,10.595316666666667,admit,high_prior,0.94,admit,female,none,30,English,Yes,22
pizza,MC,block1,prior,12,27,Pizza is sold at the pizzeria,5832,10.595316666666667,MC,NA,0.92,MC,female,none,30,English,Yes,23
jackson,C,block1,prior,12,28,Jackson is training for a marathon,4816,10.595316666666667,say,high_prior,0.88,say,female,none,30,English,Yes,24
emma,C,block1,prior,12,29,Emma is in first grade,4848,10.595316666666667,hear,low_prior,0.06,hear,female,none,30,English,Yes,25
kids,MC,block1,prior,12,30,Many children like ice cream,9408,10.595316666666667,MC,NA,0.5,MC,female,none,30,English,Yes,26
tony,C,block2,projective,12,32,Tony has been sober for 20 years,14014,10.595316666666667,acknowledge,low_prior,0.1,acknowledge,female,none,30,English,Yes,27
jackson,C,block2,projective,12,33,Jackson is training for a marathon,7168,10.595316666666667,say,high_prior,0.83,say,female,none,30,English,Yes,28
jon,C,block2,projective,12,34,Jon lives 2 blocks away from work,3320,10.595316666666667,prove,high_prior,0.88,prove,female,none,30,English,Yes,29
julian,C,block2,projective,12,35,Julian is Cuban,3752,10.595316666666667,know,high_prior,0.81,know,female,none,30,English,Yes,30
olivia,C,block2,projective,12,36,Olivia works the third shift,5064,10.595316666666667,confirm,high_prior,0.9,confirm,female,none,30,English,Yes,31
emily,C,block2,projective,12,37,Emily never has any money,30280,10.595316666666667,be_right,low_prior,0.04,be_right,female,none,30,English,Yes,32
mary,C,block2,projective,12,38,Mary is a middle school student,8896,10.595316666666667,pretend,low_prior,0.29,pretend,female,none,30,English,Yes,33
josie,C,block2,projective,12,39,Josie loves France,5248,10.595316666666667,admit,high_prior,0.91,admit,female,none,30,English,Yes,34
owen,C,block2,projective,12,40,Owen lives in New Orleans,2536,10.595316666666667,discover,low_prior,0.88,discover,female,none,30,English,Yes,35
zoe,C,block2,projective,12,41,Zoe is 5 years old,6400,10.595316666666667,think,low_prior,0.15,think,female,none,30,English,Yes,36
emma,C,block2,projective,12,42,Emma is in first grade,14433,10.595316666666667,hear,low_prior,0.55,hear,female,none,30,English,Yes,37
mia,C,block2,projective,12,43,Mia is a college student,6743,10.595316666666667,see,high_prior,0.55,see,female,none,30,English,Yes,38
josh,C,block2,projective,12,44,Josh is a 75-year old man,4496,10.595316666666667,be_annoyed,low_prior,0.01,be_annoyed,female,none,30,English,Yes,39
kids,MC,block2,projective,12,45,Many children like ice cream,2983,10.595316666666667,MC,NA,0.53,MC,female,none,30,English,Yes,40
garage,MC,block2,projective,12,46,Garages are used to store cars and other things,3975,10.595316666666667,MC,NA,0.17,MC,female,none,30,English,Yes,41
pizza,MC,block2,projective,12,47,Pizza is sold at the pizzeria,3176,10.595316666666667,MC,NA,0.78,MC,female,none,30,English,Yes,42
danny,C,block2,projective,12,48,Danny is a diabetic,3824,10.595316666666667,announce,low_prior,0.16,announce,female,none,30,English,Yes,43
grace,C,block2,projective,12,49,Grace loves her sister,3896,10.595316666666667,suggest,high_prior,0.83,suggest,female,none,30,English,Yes,44
jayden,C,block2,projective,12,50,Jayden doesn't have a driver's license,3751,10.595316666666667,establish,low_prior,0.09,establish,female,none,30,English,Yes,45
hat,MC,block2,projective,12,51,Hats are worn on the head,3215,10.595316666666667,MC,NA,0.84,MC,female,none,30,English,Yes,46
muffins,MC,block2,projective,12,52,Muffins are sold at the bakery,3527,10.595316666666667,MC,NA,0.74,MC,female,none,30,English,Yes,47
sophia,C,block2,projective,12,53,Sophia is a hipster,4111,10.595316666666667,inform,high_prior,0.84,inform,female,none,30,English,Yes,48
ballet,MC,block2,projective,12,54,Ballet is a type of dance,3960,10.595316666666667,MC,NA,0.52,MC,female,none,30,English,Yes,49
frank,C,block2,projective,12,55,Frank is allergic to cats,3735,10.595316666666667,confess,low_prior,0.02,confess,female,none,30,English,Yes,50
isabella,C,block2,projective,12,56,Isabella is from Argentina,5360,10.595316666666667,demonstrate,high_prior,0.72,demonstrate,female,none,30,English,Yes,51
charley,C,block2,projective,12,57,Charley lives in Mexico,4015,10.595316666666667,reveal,high_prior,0.69,reveal,female,none,30,English,Yes,52
danny,C,block1,projective,13,5,Danny loves cake,22021,10.032916666666667,confess,high_prior,0.76,confess,male,None.,32,English,Yes,1
olivia,C,block1,projective,13,6,Olivia has two small children,17404,10.032916666666667,think,low_prior,0,think,male,None.,32,English,Yes,2
isabella,C,block1,projective,13,7,Isabella is from Argentina,11237,10.032916666666667,establish,high_prior,0.27,establish,male,None.,32,English,Yes,3
charley,C,block1,projective,13,8,Charley lives in Mexico,12600,10.032916666666667,suggest,high_prior,0.15,suggest,male,None.,32,English,Yes,4
josh,C,block1,projective,13,9,Josh is a 5-year old boy,17063,10.032916666666667,say,high_prior,0.15,say,male,None.,32,English,Yes,5
grace,C,block1,projective,13,10,Grace loves her sister,12754,10.032916666666667,hear,high_prior,0.86,hear,male,None.,32,English,Yes,6
jayden,C,block1,projective,13,11,Jayden doesn't have a driver's license,9543,10.032916666666667,prove,low_prior,0.06,prove,male,None.,32,English,Yes,7
pizza,MC,block1,projective,13,12,Pizza is sold at the pizzeria,8866,10.032916666666667,MC,NA,0,MC,male,None.,32,English,Yes,8
jackson,C,block1,projective,13,13,Jackson is training for a marathon,12016,10.032916666666667,inform,high_prior,0.32,inform,male,None.,32,English,Yes,9
josie,C,block1,projective,13,14,Josie doesn't have a passport,17217,10.032916666666667,be_annoyed,low_prior,0.89,be_annoyed,male,None.,32,English,Yes,10
jon,C,block1,projective,13,15,Jon lives 10 miles away from work,9600,10.032916666666667,know,low_prior,0.89,know,male,None.,32,English,Yes,11
hat,MC,block1,projective,13,16,Hats are worn on the head,8498,10.032916666666667,MC,NA,0.02,MC,male,None.,32,English,Yes,12
garage,MC,block1,projective,13,17,Garages are used to store cars and other things,10303,10.032916666666667,MC,NA,0,MC,male,None.,32,English,Yes,13
zoe,C,block1,projective,13,18,Zoe is 5 years old,12759,10.032916666666667,confirm,low_prior,0.25,confirm,male,None.,32,English,Yes,14
mia,C,block1,projective,13,19,Mia is a nun,7894,10.032916666666667,admit,low_prior,0.31,admit,male,None.,32,English,Yes,15
julian,C,block1,projective,13,20,Julian is German,11171,10.032916666666667,announce,low_prior,0.17,announce,male,None.,32,English,Yes,16
muffins,MC,block1,projective,13,21,Muffins are sold at the bakery,6434,10.032916666666667,MC,NA,0,MC,male,None.,32,English,Yes,17
emma,C,block1,projective,13,22,Emma is in first grade,14524,10.032916666666667,reveal,low_prior,0.37,reveal,male,None.,32,English,Yes,18
mary,C,block1,projective,13,23,Mary is a middle school student,9905,10.032916666666667,see,low_prior,0.84,see,male,None.,32,English,Yes,19
emily,C,block1,projective,13,24,Emily has been saving for a year,8982,10.032916666666667,acknowledge,high_prior,0.4,acknowledge,male,None.,32,English,Yes,20
kids,MC,block1,projective,13,25,Many children like ice cream,52964,10.032916666666667,MC,NA,0,MC,male,None.,32,English,Yes,21
frank,C,block1,projective,13,26,Frank has always wanted a pet,9203,10.032916666666667,discover,high_prior,0.85,discover,male,None.,32,English,Yes,22
ballet,MC,block1,projective,13,27,Ballet is a type of dance,6255,10.032916666666667,MC,NA,0,MC,male,None.,32,English,Yes,23
owen,C,block1,projective,13,28,Owen lives in New Orleans,11422,10.032916666666667,pretend,low_prior,0.25,pretend,male,None.,32,English,Yes,24
sophia,C,block1,projective,13,29,Sophia is a hipster,9829,10.032916666666667,be_right,high_prior,0,be_right,male,None.,32,English,Yes,25
tony,C,block1,projective,13,30,Tony really likes to party with his friends,10470,10.032916666666667,demonstrate,high_prior,0.17,demonstrate,male,None.,32,English,Yes,26
josh,C,block2,prior,13,32,Josh is a 5-year old boy,9156,10.032916666666667,say,high_prior,0.55,say,male,None.,32,English,Yes,27
jon,C,block2,prior,13,33,Jon lives 10 miles away from work,8257,10.032916666666667,know,low_prior,0.67,know,male,None.,32,English,Yes,28
olivia,C,block2,prior,13,34,Olivia has two small children,6366,10.032916666666667,think,low_prior,0.19,think,male,None.,32,English,Yes,29
emily,C,block2,prior,13,35,Emily has been saving for a year,5927,10.032916666666667,acknowledge,high_prior,0.68,acknowledge,male,None.,32,English,Yes,30
grace,C,block2,prior,13,36,Grace loves her sister,5375,10.032916666666667,hear,high_prior,0.82,hear,male,None.,32,English,Yes,31
jayden,C,block2,prior,13,37,Jayden doesn't have a driver's license,5947,10.032916666666667,prove,low_prior,0.08,prove,male,None.,32,English,Yes,32
zoe,C,block2,prior,13,38,Zoe is 5 years old,7684,10.032916666666667,confirm,low_prior,0.09,confirm,male,None.,32,English,Yes,33
josie,C,block2,prior,13,39,Josie doesn't have a passport,8001,10.032916666666667,be_annoyed,low_prior,0.05,be_annoyed,male,None.,32,English,Yes,34
danny,C,block2,prior,13,40,Danny loves cake,5343,10.032916666666667,confess,high_prior,0.72,confess,male,None.,32,English,Yes,35
frank,C,block2,prior,13,41,Frank has always wanted a pet,5003,10.032916666666667,discover,high_prior,0.71,discover,male,None.,32,English,Yes,36
mary,C,block2,prior,13,42,Mary is a middle school student,5364,10.032916666666667,see,low_prior,0.31,see,male,None.,32,English,Yes,37
sophia,C,block2,prior,13,43,Sophia is a hipster,4584,10.032916666666667,be_right,high_prior,0.55,be_right,male,None.,32,English,Yes,38
tony,C,block2,prior,13,44,Tony really likes to party with his friends,6044,10.032916666666667,demonstrate,high_prior,0.62,demonstrate,male,None.,32,English,Yes,39
kids,MC,block2,prior,13,45,Many children like ice cream,10511,10.032916666666667,MC,NA,0.5,MC,male,None.,32,English,Yes,40
ballet,MC,block2,prior,13,46,Ballet is a type of dance,7314,10.032916666666667,MC,NA,0.5,MC,male,None.,32,English,Yes,41
mia,C,block2,prior,13,47,Mia is a nun,6434,10.032916666666667,admit,low_prior,0.03,admit,male,None.,32,English,Yes,42
isabella,C,block2,prior,13,48,Isabella is from Argentina,7991,10.032916666666667,establish,high_prior,0.55,establish,male,None.,32,English,Yes,43
julian,C,block2,prior,13,49,Julian is German,5165,10.032916666666667,announce,low_prior,0.32,announce,male,None.,32,English,Yes,44
emma,C,block2,prior,13,50,Emma is in first grade,7146,10.032916666666667,reveal,low_prior,0.54,reveal,male,None.,32,English,Yes,45
hat,MC,block2,prior,13,51,Hats are worn on the head,4507,10.032916666666667,MC,NA,0.57,MC,male,None.,32,English,Yes,46
muffins,MC,block2,prior,13,52,Muffins are sold at the bakery,5748,10.032916666666667,MC,NA,0.6,MC,male,None.,32,English,Yes,47
jackson,C,block2,prior,13,53,Jackson is training for a marathon,14931,10.032916666666667,inform,high_prior,0.68,inform,male,None.,32,English,Yes,48
garage,MC,block2,prior,13,54,Garages are used to store cars and other things,7147,10.032916666666667,MC,NA,0.44,MC,male,None.,32,English,Yes,49
pizza,MC,block2,prior,13,55,Pizza is sold at the pizzeria,3946,10.032916666666667,MC,NA,0.56,MC,male,None.,32,English,Yes,50
owen,C,block2,prior,13,56,Owen lives in New Orleans,6422,10.032916666666667,pretend,low_prior,0.37,pretend,male,None.,32,English,Yes,51
charley,C,block2,prior,13,57,Charley lives in Mexico,5916,10.032916666666667,suggest,high_prior,0.79,suggest,male,None.,32,English,Yes,52
olivia,C,block1,prior,14,5,Olivia has two small children,9399,12.019216666666667,prove,low_prior,0.06,prove,female,The study went well. Thank you for making me a part of this study.,25,English,Yes,1
jackson,C,block1,prior,14,6,Jackson is obese,6035,12.019216666666667,see,low_prior,0.42,see,female,The study went well. Thank you for making me a part of this study.,25,English,Yes,2
josie,C,block1,prior,14,7,Josie loves France,6144,12.019216666666667,reveal,high_prior,0.93,reveal,female,The study went well. Thank you for making me a part of this study.,25,English,Yes,3
muffins,MC,block1,prior,14,8,Muffins are sold at the bakery,7675,12.019216666666667,MC,NA,0.78,MC,female,The study went well. Thank you for making me a part of this study.,25,English,Yes,4
tony,C,block1,prior,14,9,Tony has been sober for 20 years,6828,12.019216666666667,confirm,low_prior,0.48,confirm,female,The study went well. Thank you for making me a part of this study.,25,English,Yes,5
pizza,MC,block1,prior,14,10,Pizza is sold at the pizzeria,6932,12.019216666666667,MC,NA,0.78,MC,female,The study went well. Thank you for making me a part of this study.,25,English,Yes,6
danny,C,block1,prior,14,11,Danny is a diabetic,7139,12.019216666666667,acknowledge,low_prior,0.08,acknowledge,female,The study went well. Thank you for making me a part of this study.,25,English,Yes,7
garage,MC,block1,prior,14,12,Garages are used to store cars and other things,8509,12.019216666666667,MC,NA,0.27,MC,female,The study went well. Thank you for making me a part of this study.,25,English,Yes,8
hat,MC,block1,prior,14,13,Hats are worn on the head,9098,12.019216666666667,MC,NA,0.84,MC,female,The study went well. Thank you for making me a part of this study.,25,English,Yes,9
frank,C,block1,prior,14,14,Frank has always wanted a pet,6502,12.019216666666667,inform,high_prior,0.44,inform,female,The study went well. Thank you for making me a part of this study.,25,English,Yes,10
zoe,C,block1,prior,14,15,Zoe is 5 years old,7539,12.019216666666667,hear,low_prior,0.37,hear,female,The study went well. Thank you for making me a part of this study.,25,English,Yes,11
jon,C,block1,prior,14,16,Jon lives 2 blocks away from work,6138,12.019216666666667,know,high_prior,0.96,know,female,The study went well. Thank you for making me a part of this study.,25,English,Yes,12
emma,C,block1,prior,14,17,Emma is in first grade,6047,12.019216666666667,admit,low_prior,0.28,admit,female,The study went well. Thank you for making me a part of this study.,25,English,Yes,13
mary,C,block1,prior,14,18,Mary is a middle school student,4689,12.019216666666667,announce,low_prior,0.33,announce,female,The study went well. Thank you for making me a part of this study.,25,English,Yes,14
emily,C,block1,prior,14,19,Emily has been saving for a year,6728,12.019216666666667,pretend,high_prior,0.93,pretend,female,The study went well. Thank you for making me a part of this study.,25,English,Yes,15
julian,C,block1,prior,14,20,Julian is Cuban,5877,12.019216666666667,confess,high_prior,0.73,confess,female,The study went well. Thank you for making me a part of this study.,25,English,Yes,16
kids,MC,block1,prior,14,21,Many children like ice cream,6768,12.019216666666667,MC,NA,0.71,MC,female,The study went well. Thank you for making me a part of this study.,25,English,Yes,17
isabella,C,block1,prior,14,22,Isabella is from Argentina,45717,12.019216666666667,discover,high_prior,0.67,discover,female,The study went well. Thank you for making me a part of this study.,25,English,Yes,18
jayden,C,block1,prior,14,23,Jayden's car is in the shop,7403,12.019216666666667,establish,high_prior,0.83,establish,female,The study went well. Thank you for making me a part of this study.,25,English,Yes,19
owen,C,block1,prior,14,24,Owen lives in New Orleans,5555,12.019216666666667,demonstrate,low_prior,0.86,demonstrate,female,The study went well. Thank you for making me a part of this study.,25,English,Yes,20
charley,C,block1,prior,14,25,Charley lives in Mexico,28339,12.019216666666667,say,high_prior,0.99,say,female,The study went well. Thank you for making me a part of this study.,25,English,Yes,21
ballet,MC,block1,prior,14,26,Ballet is a type of dance,5533,12.019216666666667,MC,NA,0.96,MC,female,The study went well. Thank you for making me a part of this study.,25,English,Yes,22
sophia,C,block1,prior,14,27,Sophia is a high end fashion model,6203,12.019216666666667,suggest,low_prior,0.94,suggest,female,The study went well. Thank you for making me a part of this study.,25,English,Yes,23
mia,C,block1,prior,14,28,Mia is a college student,10641,12.019216666666667,be_annoyed,high_prior,0.4,be_annoyed,female,The study went well. Thank you for making me a part of this study.,25,English,Yes,24
grace,C,block1,prior,14,29,Grace hates her sister,5476,12.019216666666667,be_right,low_prior,0.02,be_right,female,The study went well. Thank you for making me a part of this study.,25,English,Yes,25
josh,C,block1,prior,14,30,Josh is a 5-year old boy,5601,12.019216666666667,think,high_prior,0.12,think,female,The study went well. Thank you for making me a part of this study.,25,English,Yes,26
tony,C,block2,projective,14,32,Tony has been sober for 20 years,12758,12.019216666666667,confirm,low_prior,0.5,confirm,female,The study went well. Thank you for making me a part of this study.,25,English,Yes,27
emily,C,block2,projective,14,33,Emily has been saving for a year,13552,12.019216666666667,pretend,high_prior,0.32,pretend,female,The study went well. Thank you for making me a part of this study.,25,English,Yes,28
zoe,C,block2,projective,14,34,Zoe is 5 years old,12128,12.019216666666667,hear,low_prior,0.75,hear,female,The study went well. Thank you for making me a part of this study.,25,English,Yes,29
jon,C,block2,projective,14,35,Jon lives 2 blocks away from work,8538,12.019216666666667,know,high_prior,0.92,know,female,The study went well. Thank you for making me a part of this study.,25,English,Yes,30
charley,C,block2,projective,14,36,Charley lives in Mexico,8430,12.019216666666667,say,high_prior,0.61,say,female,The study went well. Thank you for making me a part of this study.,25,English,Yes,31
kids,MC,block2,projective,14,37,Many children like ice cream,7137,12.019216666666667,MC,NA,0.64,MC,female,The study went well. Thank you for making me a part of this study.,25,English,Yes,32
sophia,C,block2,projective,14,38,Sophia is a high end fashion model,10324,12.019216666666667,suggest,low_prior,0.07,suggest,female,The study went well. Thank you for making me a part of this study.,25,English,Yes,33
jayden,C,block2,projective,14,39,Jayden's car is in the shop,21243,12.019216666666667,establish,high_prior,0.61,establish,female,The study went well. Thank you for making me a part of this study.,25,English,Yes,34
josh,C,block2,projective,14,40,Josh is a 5-year old boy,12173,12.019216666666667,think,high_prior,0.2,think,female,The study went well. Thank you for making me a part of this study.,25,English,Yes,35
emma,C,block2,projective,14,41,Emma is in first grade,12140,12.019216666666667,admit,low_prior,0.77,admit,female,The study went well. Thank you for making me a part of this study.,25,English,Yes,36
mary,C,block2,projective,14,42,Mary is a middle school student,13922,12.019216666666667,announce,low_prior,0.67,announce,female,The study went well. Thank you for making me a part of this study.,25,English,Yes,37
muffins,MC,block2,projective,14,43,Muffins are sold at the bakery,39337,12.019216666666667,MC,NA,0.42,MC,female,The study went well. Thank you for making me a part of this study.,25,English,Yes,38
jackson,C,block2,projective,14,44,Jackson is obese,8553,12.019216666666667,see,low_prior,0.61,see,female,The study went well. Thank you for making me a part of this study.,25,English,Yes,39
frank,C,block2,projective,14,45,Frank has always wanted a pet,11200,12.019216666666667,inform,high_prior,0.95,inform,female,The study went well. Thank you for making me a part of this study.,25,English,Yes,40
olivia,C,block2,projective,14,46,Olivia has two small children,10781,12.019216666666667,prove,low_prior,0.1,prove,female,The study went well. Thank you for making me a part of this study.,25,English,Yes,41
julian,C,block2,projective,14,47,Julian is Cuban,8873,12.019216666666667,confess,high_prior,0.53,confess,female,The study went well. Thank you for making me a part of this study.,25,English,Yes,42
danny,C,block2,projective,14,48,Danny is a diabetic,14649,12.019216666666667,acknowledge,low_prior,0.02,acknowledge,female,The study went well. Thank you for making me a part of this study.,25,English,Yes,43
grace,C,block2,projective,14,49,Grace hates her sister,14638,12.019216666666667,be_right,low_prior,0.02,be_right,female,The study went well. Thank you for making me a part of this study.,25,English,Yes,44
josie,C,block2,projective,14,50,Josie loves France,11898,12.019216666666667,reveal,high_prior,0.96,reveal,female,The study went well. Thank you for making me a part of this study.,25,English,Yes,45
isabella,C,block2,projective,14,51,Isabella is from Argentina,8597,12.019216666666667,discover,high_prior,0.9,discover,female,The study went well. Thank you for making me a part of this study.,25,English,Yes,46
mia,C,block2,projective,14,52,Mia is a college student,12303,12.019216666666667,be_annoyed,high_prior,0.99,be_annoyed,female,The study went well. Thank you for making me a part of this study.,25,English,Yes,47
garage,MC,block2,projective,14,53,Garages are used to store cars and other things,12971,12.019216666666667,MC,NA,0,MC,female,The study went well. Thank you for making me a part of this study.,25,English,Yes,48
hat,MC,block2,projective,14,54,Hats are worn on the head,18280,12.019216666666667,MC,NA,0.02,MC,female,The study went well. Thank you for making me a part of this study.,25,English,Yes,49
ballet,MC,block2,projective,14,55,Ballet is a type of dance,11657,12.019216666666667,MC,NA,0.01,MC,female,The study went well. Thank you for making me a part of this study.,25,English,Yes,50
owen,C,block2,projective,14,56,Owen lives in New Orleans,9642,12.019216666666667,demonstrate,low_prior,0.91,demonstrate,female,The study went well. Thank you for making me a part of this study.,25,English,Yes,51
pizza,MC,block2,projective,14,57,Pizza is sold at the pizzeria,8667,12.019216666666667,MC,NA,0.01,MC,female,The study went well. Thank you for making me a part of this study.,25,English,Yes,52
emily,C,block1,projective,15,5,Emily never has any money,24530,10.1108,discover,low_prior,0.13,discover,male,Some of those were both probable and improbable. They really made me think.,44,English,Yes,1
emma,C,block1,projective,15,6,Emma is in law school,21029,10.1108,admit,high_prior,0.29,admit,male,Some of those were both probable and improbable. They really made me think.,44,English,Yes,2
grace,C,block1,projective,15,7,Grace hates her sister,15236,10.1108,say,low_prior,0.12,say,male,Some of those were both probable and improbable. They really made me think.,44,English,Yes,3
garage,MC,block1,projective,15,8,Garages are used to store cars and other things,20534,10.1108,MC,NA,0,MC,male,Some of those were both probable and improbable. They really made me think.,44,English,Yes,4
tony,C,block1,projective,15,9,Tony has been sober for 20 years,12999,10.1108,be_annoyed,low_prior,0.71,be_annoyed,male,Some of those were both probable and improbable. They really made me think.,44,English,Yes,5
muffins,MC,block1,projective,15,10,Muffins are sold at the bakery,10095,10.1108,MC,NA,0.01,MC,male,Some of those were both probable and improbable. They really made me think.,44,English,Yes,6
jon,C,block1,projective,15,11,Jon lives 2 blocks away from work,20281,10.1108,establish,high_prior,0.5,establish,male,Some of those were both probable and improbable. They really made me think.,44,English,Yes,7
isabella,C,block1,projective,15,12,Isabella is from Argentina,11009,10.1108,see,high_prior,0.74,see,male,Some of those were both probable and improbable. They really made me think.,44,English,Yes,8
jackson,C,block1,projective,15,13,Jackson is training for a marathon,12199,10.1108,reveal,high_prior,0.84,reveal,male,Some of those were both probable and improbable. They really made me think.,44,English,Yes,9
